Time(s),SampleIndex,Seq,ValidFlag,InterpFlag,GapLen,MissingBefore,Uc1(mV),Uc2(mV),Ut1(mV),Ut2(mV),AccX(g),AccY(g),AccZ(g),GyroX(dps),GyroY(dps),GyroZ(dps),PPG_Green,PPG_Red,PPG_IR
0.0,0,14005,1,0,0,0,836.25793,905.91431,1617.05017,1748.12317,-0.04627,-0.06384,0.99796,-2.013,0.49,-0.14,6681,73950,102443
0.01,1,14006,1,0,0,0,836.25793,905.91431,1616.82129,1747.81799,-0.04529,-0.06616,0.9971,-2.083,0.455,-0.21,6681,73950,102443
0.02,2,14007,1,0,0,0,836.25793,905.91431,1617.27905,1747.58911,-0.04724,-0.06494,0.99918,-1.61,0.578,-0.14,6684,73949,102443
0.03,3,14008,1,0,0,0,836.25793,905.91431,1616.97388,1747.51282,-0.0481,-0.06323,0.99649,-1.015,0.578,-0.245,6684,73949,102443
0.04,4,14009,1,0,0,0,836.25793,905.91431,1617.12646,1747.43652,-0.04602,-0.06091,0.99649,-1.103,0.438,-0.263,6683,73949,102439
0.05,5,14010,1,0,0,0,836.25793,905.91431,1617.12646,1747.7417,-0.04443,-0.06165,0.99747,-1.26,0.315,-0.28,6683,73949,102439
0.06,6,14011,1,0,0,0,836.25793,905.91431,1617.05017,1747.51282,-0.0437,-0.0625,0.99734,-1.47,0.403,-0.455,6683,73941,102420
0.07,7,14012,1,0,0,0,836.25793,905.91431,1617.20276,1747.58911,-0.04273,-0.06323,0.99747,-1.313,0.403,-0.455,6683,73941,102420
0.08,8,14013,1,0,0,0,836.25793,905.91431,1617.35535,1747.58911,-0.04187,-0.06275,0.99783,-1.278,0.333,-0.385,6679,73938,102401
0.09,9,14014,1,0,0,0,836.25793,905.91431,1617.27905,1747.7417,-0.04285,-0.05945,0.99881,-1.278,0.473,-0.385,6679,73938,102401
0.1,10,14015,1,0,0,0,836.25793,905.83801,1617.05017,1747.7417,-0.04236,-0.05676,0.99637,-1.278,0.385,-0.665,6677,73937,102389
0.11,11,14016,1,0,0,0,836.25793,905.83801,1617.35535,1747.66541,-0.0426,-0.05579,0.99551,-1.208,0.42,-0.368,6677,73937,102389
0.12,12,14017,1,0,0,0,836.25793,905.83801,1617.12646,1747.7417,-0.04175,-0.05615,0.99539,-1.435,0.473,-0.368,6671,73933,102390
0.13,13,14018,1,0,0,0,836.25793,905.83801,1617.05017,1747.66541,-0.04309,-0.0586,0.99771,-1.715,0.455,-0.455,6671,73933,102390
0.14,14,14019,1,0,0,0,836.25793,905.83801,1617.73682,1747.81799,-0.04505,-0.06189,1.00064,-1.89,0.56,-0.28,6669,73932,102383
0.15,15,14020,1,0,0,0,836.02905,905.83801,1617.05017,1747.81799,-0.04431,-0.06336,0.99857,-1.838,0.35,-0.228,6669,73932,102383
0.16,16,14021,1,0,0,0,836.02905,905.83801,1616.89758,1747.66541,-0.04419,-0.06262,0.99905,-1.628,0.42,-0.123,6665,73930,102380
0.17,17,14022,1,0,0,0,836.02905,905.83801,1617.27905,1747.7417,-0.04346,-0.0614,0.99893,-1.54,0.403,-0.28,6665,73930,102380
0.18,18,14023,1,0,0,0,836.02905,905.83801,1617.05017,1747.66541,-0.04431,-0.06055,0.9971,-1.593,0.508,-0.368,6663,73928,102375
0.19,19,14024,1,0,0,0,836.02905,905.83801,1617.05017,1747.58911,-0.04334,-0.05945,0.99551,-1.61,0.42,-0.245,6663,73928,102375
0.2,20,14025,1,0,0,0,836.02905,905.76172,1617.35535,1747.58911,-0.04456,-0.05969,0.99698,-1.628,0.403,-0.473,6661,73920,102367
0.21,21,14026,1,0,0,0,836.02905,905.76172,1616.745,1747.66541,-0.0437,-0.05994,0.99734,-1.82,0.473,-0.385,6661,73920,102367
0.22,22,14027,1,0,0,0,836.02905,905.76172,1617.05017,1747.58911,-0.04382,-0.06067,0.99905,-1.803,0.525,-0.525,6657,73920,102363
0.23,23,14028,1,0,0,0,836.02905,905.76172,1617.05017,1747.58911,-0.04212,-0.06201,0.99844,-1.733,0.455,-0.49,6657,73920,102363
0.24,24,14029,1,0,0,0,836.02905,905.76172,1616.97388,1747.58911,-0.04126,-0.06055,0.99466,-1.733,0.455,-0.438,6654,73918,102359
0.25,25,14030,1,0,0,0,836.18164,905.76172,1617.20276,1747.43652,-0.04089,-0.05982,0.996,-1.593,0.578,-0.578,6654,73918,102359
0.26,26,14031,1,0,0,0,836.18164,905.76172,1616.89758,1747.58911,-0.04199,-0.0575,0.9971,-1.54,0.438,-0.28,6654,73913,102352
0.27,27,14032,1,0,0,0,836.18164,905.76172,1616.97388,1747.58911,-0.04395,-0.05725,0.99881,-1.68,0.438,-0.368,6654,73913,102352
0.28,28,14033,1,0,0,0,836.18164,905.76172,1617.12646,1747.51282,-0.04334,-0.05921,0.99783,-1.943,0.49,-0.438,6651,73912,102350
0.29,29,14034,1,0,0,0,836.18164,905.76172,1617.58423,1747.66541,-0.04468,-0.06043,0.99796,-1.89,0.49,-0.245,6651,73912,102350
0.3,30,14035,1,0,0,0,836.18164,905.83801,1617.05017,1747.81799,-0.04297,-0.05921,0.99759,-1.645,0.403,-0.105,6647,73909,102346
0.31,31,14036,1,0,0,0,836.18164,905.83801,1616.82129,1747.51282,-0.04419,-0.05737,0.99637,-1.593,0.473,-0.368,6647,73909,102346
0.32,32,14037,1,0,0,0,836.18164,905.83801,1617.35535,1747.58911,-0.04358,-0.05737,0.99503,-1.505,0.508,-0.455,6646,73909,102343
0.33,33,14038,1,0,0,0,836.18164,905.83801,1617.05017,1747.43652,-0.0437,-0.05481,0.99673,-1.82,0.543,-0.315,6646,73909,102343
0.34,34,14039,1,0,0,0,836.18164,905.83801,1617.05017,1747.51282,-0.04053,-0.05725,0.99808,-2.048,0.595,-0.315,6645,73910,102336
0.35,35,14040,1,0,0,0,836.25793,905.83801,1617.27905,1747.51282,-0.04236,-0.06421,0.99686,-2.275,0.63,-0.315,6645,73910,102336
0.36,36,14041,1,0,0,0,836.25793,905.83801,1616.97388,1747.58911,-0.04346,-0.06409,0.99686,-2.625,0.665,-0.175,6644,73906,102333
0.37,37,14042,1,0,0,0,836.25793,905.83801,1617.05017,1747.51282,-0.04175,-0.05969,0.99246,-2.52,0.543,-0.263,6644,73906,102333
0.38,38,14043,1,0,0,0,836.25793,905.83801,1617.12646,1747.58911,-0.04199,-0.06421,0.99649,-2.24,0.508,-0.455,6644,73901,102329
0.39,39,14044,1,0,0,0,836.25793,905.83801,1616.97388,1747.51282,-0.04468,-0.06201,1.00113,-2.31,0.578,-0.508,6644,73901,102329
0.4,40,14045,1,0,0,0,836.25793,905.68542,1616.97388,1747.36023,-0.04614,-0.06311,0.99661,-1.96,0.648,-0.385,6639,73899,102325
0.41,41,14046,1,0,0,0,836.25793,905.68542,1616.89758,1747.66541,-0.0448,-0.06299,0.996,-1.838,0.543,-0.228,6639,73899,102325
0.42,42,14047,1,0,0,0,836.25793,905.68542,1617.12646,1747.66541,-0.0448,-0.06043,0.99539,-1.733,0.49,-0.018,6642,73897,102322
0.43,43,14048,1,0,0,0,836.25793,905.68542,1616.97388,1747.58911,-0.04431,-0.05945,0.99661,-1.855,0.525,-0.14,6642,73897,102322
0.44,44,14049,1,0,0,0,836.25793,905.68542,1617.73682,1747.7417,-0.04541,-0.06018,0.99942,-1.68,0.455,-0.175,6638,73894,102317
0.45,45,14050,1,0,0,0,836.10535,905.68542,1617.05017,1747.81799,-0.04443,-0.0586,0.99979,-1.645,0.438,-0.21,6638,73894,102317
0.46,46,14051,1,0,0,0,836.10535,905.68542,1616.745,1747.66541,-0.04407,-0.05994,0.99734,-1.698,0.49,-0.175,6638,73894,102316
0.47,47,14052,1,0,0,0,836.10535,905.68542,1617.58423,1747.97058,-0.04199,-0.06189,0.9971,-1.96,0.473,-0.175,6638,73894,102316
0.48,48,14053,1,0,0,0,836.10535,905.68542,1616.89758,1747.58911,-0.04297,-0.06299,0.9971,-2.03,0.49,-0.385,6637,73892,102318
0.49,49,14054,1,0,0,0,836.10535,905.68542,1616.89758,1747.66541,-0.04309,-0.06384,0.9971,-1.89,0.455,-0.368,6637,73892,102318
0.5,50,14055,1,0,0,0,836.10535,905.91431,1617.35535,1747.58911,-0.04212,-0.0603,0.9971,-1.575,0.525,-0.28,6635,73891,102317
0.51,51,14056,1,0,0,0,836.10535,905.91431,1616.745,1747.43652,-0.04602,-0.05847,0.99808,-1.645,0.473,-0.245,6635,73891,102317
0.52,52,14057,1,0,0,0,836.10535,905.91431,1616.97388,1747.43652,-0.04395,-0.05835,0.99722,-1.803,0.455,-0.263,6634,73891,102314
0.53,53,14058,1,0,0,0,836.10535,905.91431,1617.12646,1747.51282,-0.04431,-0.05835,0.99771,-1.978,0.368,-0.035,6634,73891,102314
0.54,54,14059,1,0,0,0,836.10535,905.91431,1616.89758,1747.51282,-0.04309,-0.05969,0.99673,-2.1,0.42,-0.193,6633,73890,102317
0.55,55,14060,1,0,0,0,836.18164,905.91431,1616.97388,1747.51282,-0.04382,-0.06214,0.99796,-2.013,0.578,-0.158,6633,73890,102317
0.56,56,14061,1,0,0,0,836.18164,905.91431,1616.97388,1747.43652,-0.04358,-0.06275,0.9993,-2.03,0.595,-0.088,6634,73889,102317
0.57,57,14062,1,0,0,0,836.18164,905.91431,1616.97388,1747.28394,-0.04431,-0.06409,0.9982,-1.925,0.56,-0.158,6634,73889,102317
0.58,58,14063,1,0,0,0,836.18164,905.91431,1617.05017,1747.28394,-0.04431,-0.06287,0.99893,-1.785,0.578,-0.053,6634,73891,102320
0.59,59,14064,1,0,0,0,836.18164,905.91431,1617.50793,1747.36023,-0.0459,-0.06091,0.99954,-1.61,0.595,-0.245,6634,73891,102320
0.6,60,14065,1,0,0,0,836.18164,905.68542,1616.89758,1747.58911,-0.04297,-0.0603,0.99649,-1.575,0.35,0.018,6637,73891,102321
0.61,61,14066,1,0,0,0,836.18164,905.68542,1616.6687,1747.20764,-0.04346,-0.06091,0.9971,-1.628,0.473,-0.298,6637,73891,102321
0.62,62,14067,1,0,0,0,836.18164,905.68542,1617.27905,1747.58911,-0.0437,-0.06079,0.99734,-1.803,0.42,-0.403,6637,73891,102321
0.63,63,14068,1,0,0,0,836.18164,905.68542,1617.12646,1747.43652,-0.0437,-0.0625,0.99734,-1.873,0.385,-0.385,6638,73889,102323
0.64,64,14069,1,0,0,0,836.18164,905.68542,1616.97388,1747.51282,-0.0448,-0.06201,0.99832,-1.68,0.49,-0.21,6638,73889,102323
0.65,65,14070,1,0,0,0,836.18164,905.68542,1617.12646,1747.43652,-0.0448,-0.06128,0.99771,-1.838,0.508,-0.438,6636,73891,102327
0.66,66,14071,1,0,0,0,836.18164,905.68542,1616.6687,1747.51282,-0.04553,-0.06104,0.99747,-1.873,0.473,-0.42,6636,73891,102327
0.67,67,14072,1,0,0,0,836.18164,905.68542,1616.97388,1747.43652,-0.04468,-0.06238,0.99564,-1.838,0.403,-0.35,6635,73891,102326
0.68,68,14073,1,0,0,0,836.18164,905.68542,1617.05017,1747.51282,-0.0448,-0.06067,0.99783,-1.453,0.438,-0.193,6635,73891,102326
0.69,69,14074,1,0,0,0,836.18164,905.68542,1616.89758,1747.51282,-0.04248,-0.05872,0.99698,-1.33,0.35,-0.228,6637,73893,102328
0.7,70,14075,1,0,0,0,836.18164,905.68542,1617.05017,1747.36023,-0.04114,-0.05567,0.99661,-1.435,0.403,0.105,6637,73891,102327
0.71,71,14076,1,0,0,0,836.18164,905.68542,1616.6687,1747.58911,-0.03967,-0.05567,0.99515,-1.645,0.473,0.175,6637,73891,102327
0.72,72,14077,1,0,0,0,836.18164,905.68542,1616.82129,1747.43652,-0.0398,-0.05567,0.99356,-1.978,0.508,0.28,6637,73891,102327
0.73,73,14078,1,0,0,0,836.18164,905.68542,1616.745,1747.28394,-0.04077,-0.05628,0.99661,-2.153,0.508,0.35,6638,73896,102335
0.74,74,14079,1,0,0,0,836.18164,905.68542,1617.43164,1747.51282,-0.04297,-0.05835,0.99783,-2.45,0.525,0.368,6638,73896,102335
0.75,75,14080,1,0,0,0,836.02905,905.68542,1616.97388,1747.51282,-0.04517,-0.06824,0.99893,-2.87,0.683,0.403,6639,73892,102341
0.76,76,14081,1,0,0,0,836.02905,905.68542,1616.51611,1747.36023,-0.0459,-0.07031,1.00064,-2.555,0.63,0.14,6639,73892,102341
0.77,77,14082,1,0,0,0,836.02905,905.68542,1616.97388,1747.43652,-0.04651,-0.07227,1.00003,-2.118,0.613,0.018,6638,73894,102342
0.78,78,14083,1,0,0,0,836.02905,905.68542,1616.82129,1747.43652,-0.04749,-0.06995,1.00003,-1.855,0.665,-0.053,6638,73894,102342
0.79,79,14084,1,0,0,0,836.02905,905.68542,1616.89758,1747.43652,-0.04761,-0.06726,0.99844,-1.575,0.473,-0.263,6642,73896,102345
0.8,80,14085,1,0,0,0,836.02905,905.91431,1617.05017,1747.51282,-0.04712,-0.06262,0.99918,-1.103,0.508,-0.228,6642,73896,102351
0.81,81,14086,1,0,0,0,836.02905,905.91431,1616.89758,1747.28394,-0.04724,-0.0586,0.99637,-0.788,0.455,-0.105,6642,73896,102351
0.82,82,14087,1,0,0,0,836.02905,905.91431,1616.97388,1747.43652,-0.0459,-0.05481,0.99734,-1.12,0.403,-0.035,6642,73896,102351
0.83,83,14088,1,0,0,0,836.02905,905.91431,1617.35535,1747.43652,-0.0448,-0.05762,0.99564,-1.365,0.245,0.018,6645,73900,102352
0.84,84,14089,1,0,0,0,836.02905,905.91431,1616.82129,1747.36023,-0.04431,-0.06091,0.99686,-1.593,0.368,0.193,6645,73900,102352
0.85,85,14090,1,0,0,0,836.10535,905.91431,1616.97388,1747.43652,-0.04102,-0.0647,0.99722,-1.645,0.298,0.14,6642,73895,102351
0.86,86,14091,1,0,0,0,836.10535,905.91431,1616.82129,1747.36023,-0.04248,-0.0647,0.99869,-1.768,0.35,-0.018,6642,73895,102351
0.87,87,14092,1,0,0,0,836.10535,905.91431,1616.82129,1747.36023,-0.04334,-0.0636,0.99759,-1.558,0.385,0.07,6646,73898,102357
0.88,88,14093,1,0,0,0,836.10535,905.91431,1616.82129,1747.28394,-0.04065,-0.06189,0.99661,-1.295,0.455,-0.018,6646,73898,102357
0.89,89,14094,1,0,0,0,836.10535,905.91431,1617.05017,1747.58911,-0.04334,-0.05872,0.99661,-1.243,0.49,0.0,6647,73904,102360
0.9,90,14095,1,0,0,0,836.10535,905.45654,1616.89758,1747.43652,-0.0437,-0.05896,0.99588,-1.365,0.49,-0.193,6645,73900,102366
0.91,91,14096,1,0,0,0,836.10535,905.45654,1616.6687,1747.28394,-0.04443,-0.05823,0.99661,-1.505,0.508,-0.14,6645,73900,102366
0.92,92,14097,1,0,0,0,836.10535,905.45654,1616.97388,1747.36023,-0.04431,-0.05982,0.9971,-1.855,0.49,-0.263,6645,73900,102366
0.93,93,14098,1,0,0,0,836.10535,905.45654,1616.82129,1747.36023,-0.04517,-0.06055,0.99722,-1.873,0.595,-0.315,6649,73901,102365
0.94,94,14099,1,0,0,0,836.10535,905.45654,1616.89758,1747.36023,-0.04285,-0.06067,0.99832,-1.978,0.578,-0.35,6649,73901,102365
0.95,95,14100,1,0,0,0,836.02905,905.45654,1616.97388,1747.05505,-0.04163,-0.06177,0.99734,-2.188,0.525,-0.263,6647,73901,102371
0.96,96,14101,1,0,0,0,836.02905,905.45654,1616.59241,1747.20764,-0.04151,-0.06116,0.99625,-2.258,0.455,-0.228,6647,73901,102371
0.97,97,14102,1,0,0,0,836.02905,905.45654,1616.82129,1747.20764,-0.04114,-0.05945,0.99686,-2.45,0.56,-0.578,6650,73905,102378
0.98,98,14103,1,0,0,0,836.02905,905.45654,1617.43164,1747.51282,-0.04346,-0.05615,0.99942,-2.555,0.578,-0.648,6650,73905,102378
0.99,99,14104,1,0,0,0,836.02905,905.45654,1616.745,1747.66541,-0.04236,-0.05762,0.99722,-2.765,0.7,-0.893,6654,73906,102379
1.0,100,14105,1,0,0,0,836.02905,905.83801,1616.97388,1747.43652,-0.04285,-0.06336,0.9971,-3.01,0.648,-0.718,6654,73906,102379
1.01,101,14106,1,0,0,0,836.02905,905.83801,1616.97388,1747.43652,-0.0437,-0.06726,0.9982,-3.185,0.578,-0.77,6653,73909,102382
1.02,102,14107,1,0,0,0,836.02905,905.83801,1616.745,1747.20764,-0.04736,-0.068,1.0004,-3.045,0.788,-0.963,6653,73909,102382
1.03,103,14108,1,0,0,0,836.02905,905.83801,1616.82129,1747.20764,-0.04846,-0.06323,0.99905,-2.17,0.648,-0.998,6653,73907,102385
1.04,104,14109,1,0,0,0,836.02905,905.83801,1616.89758,1747.28394,-0.04639,-0.06189,0.99478,-2.188,0.648,-1.05,6653,73907,102385
1.05,105,14110,1,0,0,0,835.95276,905.83801,1616.89758,1747.58911,-0.04566,-0.06238,0.99649,-2.24,0.56,-0.823,6654,73906,102383
1.06,106,14111,1,0,0,0,835.95276,905.83801,1616.51611,1747.13135,-0.04346,-0.06189,0.99442,-2.293,0.508,-1.103,6654,73906,102383
1.07,107,14112,1,0,0,0,835.95276,905.83801,1617.12646,1747.20764,-0.0426,-0.06177,0.99747,-2.415,0.56,-1.243,6659,73908,102388
1.08,108,14113,1,0,0,0,835.95276,905.83801,1616.745,1747.28394,-0.04443,-0.06555,1.00003,-2.73,0.613,-1.155,6659,73908,102388
1.09,109,14114,1,0,0,0,835.95276,905.83801,1616.89758,1746.97876,-0.04846,-0.0669,0.99991,-2.538,0.595,-1.173,6656,73911,102395
1.1,110,14115,1,0,0,0,835.95276,905.76172,1616.89758,1747.28394,-0.04859,-0.06873,0.99881,-2.293,0.648,-1.313,6656,73911,102395
1.11,111,14116,1,0,0,0,835.95276,905.76172,1616.745,1747.05505,-0.04785,-0.06726,0.99844,-1.925,0.543,-1.208,6659,73908,102398
1.12,112,14117,1,0,0,0,835.95276,905.76172,1616.82129,1747.05505,-0.04614,-0.06531,0.99857,-1.505,0.473,-1.208,6659,73908,102398
1.13,113,14118,1,0,0,0,835.95276,905.76172,1617.20276,1747.28394,-0.04505,-0.05774,0.99625,-1.085,0.455,-0.945,6660,73908,102391
1.14,114,14119,1,0,0,0,835.95276,905.76172,1616.89758,1747.20764,-0.04175,-0.05469,0.99527,-1.295,0.42,-0.858,6660,73908,102391
1.15,115,14120,1,0,0,0,836.25793,905.76172,1616.82129,1747.28394,-0.03919,-0.0542,0.99673,-1.715,0.42,-0.875,6660,73904,102377
1.16,116,14121,1,0,0,0,836.25793,905.76172,1616.97388,1747.20764,-0.03833,-0.05799,0.99869,-2.1,0.473,-0.945,6660,73904,102377
1.17,117,14122,1,0,0,0,836.25793,905.76172,1616.97388,1747.13135,-0.03858,-0.06128,0.99796,-2.293,0.525,-0.98,6657,73898,102365
1.18,118,14123,1,0,0,0,836.25793,905.76172,1616.745,1747.28394,-0.03967,-0.06348,0.99771,-2.24,0.578,-0.648,6657,73898,102365
1.19,119,14124,1,0,0,0,836.25793,905.76172,1617.05017,1747.51282,-0.04053,-0.06055,0.99857,-2.135,0.525,-0.543,6652,73897,102352
1.2,120,14125,1,0,0,0,836.25793,905.45654,1617.05017,1747.58911,-0.04053,-0.05908,0.99673,-2.083,0.455,-0.473,6652,73897,102352
1.21,121,14126,1,0,0,0,836.25793,905.45654,1616.82129,1747.20764,-0.04285,-0.05652,0.99698,-2.275,0.49,-0.49,6650,73895,102349
1.22,122,14127,1,0,0,0,836.25793,905.45654,1617.35535,1747.43652,-0.04248,-0.05786,0.99478,-2.398,0.613,-0.525,6650,73895,102349
1.23,123,14128,1,0,0,0,836.25793,905.45654,1616.82129,1747.20764,-0.04529,-0.06226,0.99661,-2.8,0.578,-0.245,6649,73892,102343
1.24,124,14129,1,0,0,0,836.25793,905.45654,1616.745,1747.20764,-0.04639,-0.06629,0.99905,-2.975,0.718,-0.42,6649,73892,102343
1.25,125,14130,1,0,0,0,836.33423,905.45654,1617.12646,1747.20764,-0.04785,-0.06763,1.00027,-2.923,0.7,-0.315,6645,73892,102343
1.26,126,14131,1,0,0,0,836.33423,905.45654,1616.51611,1747.20764,-0.04675,-0.06934,0.99942,-2.538,0.665,-0.263,6645,73892,102343
1.27,127,14132,1,0,0,0,836.33423,905.45654,1616.82129,1747.20764,-0.04627,-0.06909,0.99796,-2.345,0.648,-0.333,6640,73897,102344
1.28,128,14133,1,0,0,0,836.33423,905.45654,1617.05017,1747.28394,-0.04712,-0.06702,0.9982,-2.083,0.613,-0.35,6640,73897,102344
1.29,129,14134,1,0,0,0,836.33423,905.45654,1616.745,1747.20764,-0.04602,-0.06397,0.99673,-1.96,0.525,-0.298,6638,73888,102340
1.3,130,14135,1,0,0,0,836.33423,905.45654,1616.89758,1747.20764,-0.04358,-0.06555,0.99551,-1.995,0.56,-0.455,6638,73888,102340
1.31,131,14136,1,0,0,0,836.33423,905.45654,1616.89758,1747.28394,-0.04492,-0.06458,0.99698,-2.153,0.525,-0.63,6634,73886,102334
1.32,132,14137,1,0,0,0,836.33423,905.45654,1616.82129,1747.20764,-0.0459,-0.06507,0.99881,-2.275,0.42,-0.578,6634,73886,102334
1.33,133,14138,1,0,0,0,836.33423,905.45654,1616.745,1747.13135,-0.04639,-0.06531,0.99918,-2.24,0.543,-0.42,6631,73879,102321
1.34,134,14139,1,0,0,0,836.33423,905.45654,1616.89758,1747.20764,-0.04431,-0.06494,0.99747,-2.03,0.543,-0.613,6631,73879,102321
1.35,135,14140,1,0,0,0,836.18164,905.45654,1616.89758,1747.51282,-0.04187,-0.06446,0.99625,-1.838,0.473,-0.648,6630,73875,102312
1.36,136,14141,1,0,0,0,836.18164,905.45654,1616.6687,1747.13135,-0.04407,-0.06189,0.99832,-1.698,0.49,-0.403,6630,73875,102312
1.37,137,14142,1,0,0,0,836.18164,905.45654,1616.97388,1747.20764,-0.04407,-0.06275,0.99808,-1.768,0.578,-0.263,6628,73874,102311
1.38,138,14143,1,0,0,0,836.18164,905.45654,1616.82129,1747.05505,-0.04382,-0.06433,0.99783,-1.89,0.525,-0.228,6628,73874,102311
1.39,139,14144,1,0,0,0,836.18164,905.45654,1616.89758,1747.05505,-0.04505,-0.06482,0.99722,-1.89,0.525,-0.508,6626,73873,102307
1.4,140,14145,1,0,0,0,836.18164,905.83801,1617.12646,1747.20764,-0.04346,-0.06323,0.996,-1.733,0.49,-0.578,6626,73873,102307
1.41,141,14146,1,0,0,0,836.18164,905.83801,1616.745,1747.05505,-0.04492,-0.06189,0.99649,-1.698,0.525,-0.35,6623,73875,102301
1.42,142,14147,1,0,0,0,836.18164,905.83801,1616.89758,1747.05505,-0.04443,-0.06055,0.996,-1.663,0.648,-0.298,6623,73875,102301
1.43,143,14148,1,0,0,0,836.18164,905.83801,1617.12646,1747.20764,-0.04212,-0.06043,0.99637,-1.908,0.42,-0.158,6622,73871,102303
1.44,144,14149,1,0,0,0,836.18164,905.83801,1616.82129,1747.13135,-0.04175,-0.06238,0.9971,-2.17,0.49,-0.14,6622,73871,102303
1.45,145,14150,1,0,0,0,836.10535,905.83801,1616.82129,1746.97876,-0.04163,-0.06336,0.99734,-2.363,0.613,-0.07,6618,73869,102301
1.46,146,14151,1,0,0,0,836.10535,905.83801,1616.97388,1747.13135,-0.04163,-0.0647,0.99673,-2.45,0.683,-0.088,6618,73869,102301
1.47,147,14152,1,0,0,0,836.10535,905.83801,1616.82129,1747.05505,-0.04236,-0.06531,0.99844,-2.468,0.543,-0.14,6620,73871,102302
1.48,148,14153,1,0,0,0,836.10535,905.83801,1616.82129,1747.20764,-0.04346,-0.06458,0.99808,-2.38,0.613,-0.175,6620,73871,102302
1.49,149,14154,1,0,0,0,836.10535,905.83801,1617.12646,1747.28394,-0.04505,-0.06446,0.99979,-2.17,0.665,-0.123,6620,73868,102302
1.5,150,14155,1,0,0,0,836.10535,905.38025,1616.89758,1747.36023,-0.04468,-0.06397,0.99734,-2.135,0.63,-0.018,6620,73868,102302
1.51,151,14156,1,0,0,0,836.10535,905.38025,1616.82129,1747.05505,-0.04578,-0.06336,0.99783,-2.153,0.595,-0.035,6621,73868,102297
1.52,152,14157,1,0,0,0,836.10535,905.38025,1616.89758,1747.36023,-0.04663,-0.06336,0.99771,-2.24,0.595,0.053,6621,73868,102297
1.53,153,14158,1,0,0,0,836.10535,905.38025,1616.82129,1747.13135,-0.04627,-0.0658,0.99759,-2.065,0.56,0.193,6617,73868,102297
1.54,154,14159,1,0,0,0,836.10535,905.38025,1616.82129,1747.20764,-0.04541,-0.0669,0.99783,-2.17,0.49,0.018,6617,73868,102297
1.55,155,14160,1,0,0,0,836.41052,905.38025,1617.05017,1747.13135,-0.04517,-0.06946,0.99893,-2.013,0.525,-0.105,6617,73867,102297
1.56,156,14161,1,0,0,0,836.41052,905.38025,1616.6687,1747.05505,-0.04566,-0.06836,0.99673,-1.855,0.543,0.035,6617,73867,102297
1.57,157,14162,1,0,0,0,836.41052,905.38025,1616.89758,1746.90247,-0.04566,-0.06922,0.99771,-1.558,0.508,0.088,6615,73862,102294
1.58,158,14163,1,0,0,0,836.41052,905.38025,1617.05017,1747.05505,-0.04541,-0.06787,0.99722,-1.575,0.543,0.14,6615,73862,102294
1.59,159,14164,1,0,0,0,836.41052,905.38025,1616.745,1746.90247,-0.04614,-0.06629,0.99808,-1.75,0.508,-0.053,6615,73866,102295
1.6,160,14165,1,0,0,0,836.41052,905.45654,1616.82129,1747.05505,-0.04419,-0.06592,0.99722,-1.68,0.508,-0.158,6615,73866,102295
1.61,161,14166,1,0,0,0,836.41052,905.45654,1617.05017,1747.05505,-0.04456,-0.06372,0.9993,-1.68,0.56,-0.28,6614,73864,102298
1.62,162,14167,1,0,0,0,836.41052,905.45654,1616.745,1746.82617,-0.04468,-0.06384,0.99942,-1.715,0.543,-0.333,6614,73864,102298
1.63,163,14168,1,0,0,0,836.41052,905.45654,1616.89758,1746.82617,-0.04443,-0.0647,0.99771,-1.733,0.525,-0.228,6614,73864,102295
1.64,164,14169,1,0,0,0,836.41052,905.45654,1616.97388,1746.97876,-0.04321,-0.0669,0.99698,-1.838,0.473,-0.158,6614,73864,102295
1.65,165,14170,1,0,0,0,836.18164,905.45654,1616.745,1747.28394,-0.04285,-0.06641,0.99637,-1.645,0.508,-0.333,6615,73864,102297
1.66,166,14171,1,0,0,0,836.18164,905.45654,1616.6687,1746.90247,-0.0437,-0.06531,0.99637,-1.593,0.595,-0.298,6615,73864,102297
1.67,167,14172,1,0,0,0,836.18164,905.45654,1616.82129,1746.97876,-0.04505,-0.06446,0.99893,-1.628,0.613,-0.42,6615,73867,102300
1.68,168,14173,1,0,0,0,836.18164,905.45654,1616.89758,1746.90247,-0.04541,-0.06629,0.99979,-1.75,0.578,-0.35,6615,73867,102300
1.69,169,14174,1,0,0,0,836.18164,905.45654,1616.82129,1746.90247,-0.04602,-0.06629,0.9993,-1.733,0.508,-0.263,6615,73864,102293
1.7,170,14175,1,0,0,0,836.18164,905.68542,1616.97388,1747.05505,-0.04468,-0.06519,0.99783,-1.33,0.473,-0.28,6615,73864,102293
1.71,171,14176,1,0,0,0,836.18164,905.68542,1616.59241,1746.97876,-0.04468,-0.06665,0.99673,-1.505,0.56,-0.455,6617,73867,102302
1.72,172,14177,1,0,0,0,836.18164,905.68542,1616.6687,1746.97876,-0.04566,-0.06519,0.99979,-1.4,0.508,-0.385,6617,73867,102302
1.73,173,14178,1,0,0,0,836.18164,905.68542,1617.20276,1747.13135,-0.0448,-0.06446,0.99796,-1.365,0.49,-0.28,6616,73864,102301
1.74,174,14179,1,0,0,0,836.18164,905.68542,1616.51611,1746.97876,-0.0448,-0.06543,0.99686,-1.47,0.455,-0.245,6616,73864,102301
1.75,175,14180,1,0,0,0,836.10535,905.68542,1616.89758,1746.97876,-0.04614,-0.06592,0.99673,-1.523,0.508,-0.543,6617,73863,102303
1.76,176,14181,1,0,0,0,836.10535,905.68542,1616.6687,1747.05505,-0.04492,-0.06665,0.99759,-1.54,0.543,-0.508,6617,73863,102303
1.77,177,14182,1,0,0,0,836.10535,905.68542,1616.59241,1746.97876,-0.04651,-0.06519,0.99918,-1.523,0.508,-0.56,6616,73867,102305
1.78,178,14183,1,0,0,0,836.10535,905.68542,1616.51611,1746.97876,-0.04639,-0.06592,0.99991,-1.418,0.385,-0.315,6616,73867,102305
1.79,179,14184,1,0,0,0,836.10535,905.68542,1616.89758,1747.13135,-0.04468,-0.06531,0.99844,-1.558,0.333,-0.42,6618,73867,102309
1.8,180,14185,1,0,0,0,836.10535,905.38025,1616.6687,1747.28394,-0.04297,-0.06323,0.99796,-1.383,0.508,-0.455,6618,73867,102309
1.81,181,14186,1,0,0,0,836.10535,905.38025,1616.43982,1746.82617,-0.04419,-0.06336,0.99722,-1.295,0.56,-0.385,6618,73868,102316
1.82,182,14187,1,0,0,0,836.10535,905.38025,1616.82129,1747.13135,-0.04468,-0.06214,0.99686,-1.505,0.595,-0.263,6618,73868,102316
1.83,183,14188,1,0,0,0,836.10535,905.38025,1616.6687,1746.82617,-0.04431,-0.06275,0.99734,-1.505,0.543,-0.333,6621,73867,102318
1.84,184,14189,1,0,0,0,836.10535,905.38025,1616.6687,1746.82617,-0.04578,-0.06348,0.99734,-1.523,0.578,-0.403,6621,73867,102318
1.85,185,14190,1,0,0,0,836.25793,905.38025,1617.05017,1746.90247,-0.04663,-0.06458,0.99954,-1.645,0.403,-0.14,6621,73868,102320
1.86,186,14191,1,0,0,0,836.25793,905.38025,1616.51611,1746.82617,-0.0448,-0.0647,0.99686,-1.628,0.473,0.018,6621,73868,102320
1.87,187,14192,1,0,0,0,836.25793,905.38025,1616.6687,1746.90247,-0.04321,-0.06275,0.99649,-1.505,0.49,-0.175,6625,73873,102325
1.88,188,14193,1,0,0,0,836.25793,905.38025,1617.05017,1747.20764,-0.04309,-0.06372,0.99551,-1.82,0.35,-0.245,6625,73873,102325
1.89,189,14194,1,0,0,0,836.25793,905.38025,1616.6687,1746.90247,-0.04456,-0.06275,0.99698,-1.838,0.315,-0.263,6622,73868,102329
1.9,190,14195,1,0,0,0,836.25793,905.45654,1616.745,1747.05505,-0.04346,-0.06226,0.99979,-1.838,0.473,-0.175,6622,73868,102329
1.91,191,14196,1,0,0,0,836.25793,905.45654,1617.05017,1746.97876,-0.04236,-0.06397,0.9982,-1.943,0.455,-0.14,6625,73877,102332
1.92,192,14197,1,0,0,0,836.25793,905.45654,1616.6687,1746.90247,-0.04212,-0.06287,0.99759,-1.925,0.385,-0.175,6625,73877,102332
1.93,193,14198,1,0,0,0,836.25793,905.45654,1616.82129,1746.82617,-0.04114,-0.06275,0.99673,-1.838,0.42,-0.175,6628,73877,102339
1.94,194,14199,1,0,0,0,836.25793,905.45654,1616.6687,1746.82617,-0.04114,-0.0625,0.99539,-1.943,0.56,0.0,6628,73877,102339
1.95,195,14200,1,0,0,0,835.87646,905.45654,1616.6687,1747.36023,-0.04395,-0.06409,0.9982,-2.24,0.508,0.018,6632,73882,102344
1.96,196,14201,1,0,0,0,835.87646,905.45654,1616.43982,1746.90247,-0.04395,-0.06409,0.9982,-2.205,0.49,0.018,6632,73882,102344
1.97,197,14202,1,0,0,0,835.87646,905.45654,1616.745,1746.82617,-0.04492,-0.06384,0.99734,-2.118,0.735,-0.07,6629,73882,102348
1.98,198,14203,1,0,0,0,835.87646,905.45654,1616.51611,1746.82617,-0.04541,-0.06568,0.99796,-2.258,0.613,-0.228,6629,73882,102348
1.99,199,14204,1,0,0,0,835.87646,905.45654,1616.6687,1747.05505,-0.04321,-0.06848,0.99698,-2.17,0.543,-0.263,6631,73881,102356
2.0,200,14205,1,0,0,0,835.87646,905.45654,1616.745,1746.82617,-0.04431,-0.06824,0.99844,-2.118,0.508,-0.105,6631,73881,102356
2.01,201,14206,1,0,0,0,835.87646,905.45654,1616.51611,1746.74988,-0.04517,-0.06751,0.99796,-1.978,0.438,0.018,6632,73887,102361
2.02,202,14207,1,0,0,0,835.87646,905.45654,1616.6687,1746.82617,-0.04602,-0.06519,0.99686,-1.96,0.63,-0.28,6632,73887,102361
2.03,203,14208,1,0,0,0,835.87646,905.45654,1617.12646,1746.90247,-0.04627,-0.06677,0.99661,-2.03,0.508,-0.175,6637,73884,102358
2.04,204,14209,1,0,0,0,835.87646,905.45654,1616.59241,1746.74988,-0.04456,-0.06751,0.99661,-1.978,0.473,-0.228,6637,73884,102358
2.05,205,14210,1,0,0,0,836.02905,905.45654,1616.6687,1746.74988,-0.04639,-0.0669,0.99796,-1.838,0.525,-0.455,6637,73884,102362
2.06,206,14211,1,0,0,0,836.02905,905.45654,1616.82129,1747.13135,-0.04578,-0.06665,0.9971,-1.663,0.543,-0.403,6637,73884,102362
2.07,207,14212,1,0,0,0,836.02905,905.45654,1616.6687,1746.74988,-0.04285,-0.06677,0.99686,-1.68,0.473,-0.228,6636,73884,102368
2.08,208,14213,1,0,0,0,836.02905,905.45654,1616.6687,1746.74988,-0.04468,-0.06714,0.99857,-1.803,0.455,-0.368,6636,73884,102368
2.09,209,14214,1,0,0,0,836.02905,905.45654,1617.12646,1746.90247,-0.04505,-0.06629,0.99832,-1.645,0.49,-0.473,6637,73886,102371
2.1,210,14215,1,0,0,0,836.02905,905.38025,1616.745,1747.05505,-0.04627,-0.06714,0.99979,-1.663,0.525,-0.368,6637,73886,102371
2.11,211,14216,1,0,0,0,836.02905,905.38025,1616.59241,1746.74988,-0.04566,-0.06751,0.99734,-1.523,0.56,-0.683,6638,73888,102374
2.12,212,14217,1,0,0,0,836.02905,905.38025,1616.82129,1746.82617,-0.04297,-0.06714,0.99539,-1.575,0.42,-0.77,6638,73888,102374
2.13,213,14218,1,0,0,0,836.02905,905.38025,1616.59241,1746.59729,-0.04382,-0.06494,0.99551,-1.488,0.385,-0.595,6640,73887,102375
2.14,214,14219,1,0,0,0,836.02905,905.38025,1616.745,1746.67358,-0.04285,-0.06348,0.99686,-1.453,0.385,-0.578,6640,73887,102375
2.15,215,14220,1,0,0,0,836.10535,905.38025,1616.59241,1746.74988,-0.0426,-0.06116,0.99979,-1.558,0.403,-0.665,6642,73891,102379
2.16,216,14221,1,0,0,0,836.10535,905.38025,1616.43982,1746.67358,-0.04212,-0.06104,0.9993,-1.768,0.543,-0.525,6642,73891,102379
2.17,217,14222,1,0,0,0,836.10535,905.38025,1616.6687,1746.521,-0.04419,-0.06629,0.99832,-1.89,0.56,-0.473,6644,73892,102385
2.18,218,14223,1,0,0,0,836.10535,905.38025,1616.97388,1746.59729,-0.04614,-0.06714,0.99783,-1.978,0.665,-0.368,6644,73892,102385
2.19,219,14224,1,0,0,0,836.10535,905.38025,1616.6687,1746.521,-0.047,-0.06775,0.99771,-1.75,0.508,-0.333,6646,73897,102390
2.2,220,14225,1,0,0,0,836.10535,905.45654,1616.6687,1746.74988,-0.04798,-0.06726,0.99979,-1.61,0.49,-0.385,6646,73897,102390
2.21,221,14226,1,0,0,0,836.10535,905.45654,1617.20276,1746.74988,-0.04736,-0.06726,0.99954,-1.295,0.42,-0.508,6648,73899,102392
2.22,222,14227,1,0,0,0,836.10535,905.45654,1616.82129,1746.67358,-0.04724,-0.06616,0.99588,-1.295,0.543,-0.718,6648,73899,102392
2.23,223,14228,1,0,0,0,836.10535,905.45654,1616.82129,1746.67358,-0.0426,-0.06507,0.99612,-1.435,0.42,-0.56,6648,73893,102377
2.24,224,14229,1,0,0,0,836.10535,905.45654,1616.97388,1746.82617,-0.04224,-0.06507,0.99734,-1.628,0.508,-0.543,6648,73893,102377
2.25,225,14230,1,0,0,0,835.87646,905.45654,1616.745,1746.97876,-0.04236,-0.06555,0.99893,-1.68,0.595,-0.525,6645,73886,102360
2.26,226,14231,1,0,0,0,835.87646,905.45654,1616.36353,1746.59729,-0.0437,-0.0647,0.99918,-1.645,0.56,-0.683,6645,73886,102360
2.27,227,14232,1,0,0,0,835.87646,905.45654,1616.59241,1746.67358,-0.04468,-0.0647,0.99979,-1.365,0.578,-0.613,6642,73885,102355
2.28,228,14233,1,0,0,0,835.87646,905.45654,1616.51611,1746.67358,-0.04505,-0.06372,0.99673,-1.383,0.403,-0.648,6642,73885,102355
2.29,229,14234,1,0,0,0,835.87646,905.45654,1616.59241,1746.74988,-0.04419,-0.06348,0.9971,-1.453,0.525,-0.665,6639,73885,102347
2.3,230,14235,1,0,0,0,835.87646,905.22766,1616.745,1746.59729,-0.04602,-0.06226,0.99796,-1.418,0.455,-0.455,6639,73885,102347
2.31,231,14236,1,0,0,0,835.87646,905.22766,1616.36353,1746.59729,-0.04468,-0.06409,0.99661,-1.663,0.438,-0.543,6638,73886,102344
2.32,232,14237,1,0,0,0,835.87646,905.22766,1616.51611,1746.67358,-0.0459,-0.06592,0.99649,-1.733,0.42,-0.455,6638,73886,102344
2.33,233,14238,1,0,0,0,835.87646,905.22766,1616.89758,1746.74988,-0.04321,-0.06568,0.99588,-1.365,0.368,-0.438,6635,73885,102348
2.34,234,14239,1,0,0,0,835.87646,905.22766,1616.43982,1746.521,-0.04419,-0.06275,0.99808,-1.33,0.385,-0.473,6635,73885,102348
2.35,235,14240,1,0,0,0,835.87646,905.22766,1616.59241,1746.59729,-0.04602,-0.0625,0.99918,-1.348,0.508,-0.473,6634,73884,102351
2.36,236,14241,1,0,0,0,835.87646,905.22766,1616.6687,1746.90247,-0.04443,-0.06336,0.99857,-1.365,0.525,-0.42,6634,73884,102351
2.37,237,14242,1,0,0,0,835.87646,905.22766,1616.59241,1746.67358,-0.04358,-0.06336,0.9971,-1.418,0.473,-0.368,6629,73882,102340
2.38,238,14243,1,0,0,0,835.87646,905.22766,1616.59241,1746.67358,-0.04395,-0.06384,0.99722,-1.47,0.385,-0.438,6629,73882,102340
2.39,239,14244,1,0,0,0,835.87646,905.22766,1617.05017,1746.82617,-0.04602,-0.06494,0.99893,-1.593,0.42,-0.473,6630,73878,102335
2.4,240,14245,1,0,0,0,835.87646,905.22766,1616.51611,1746.97876,-0.04529,-0.06641,0.99918,-1.61,0.368,-0.35,6630,73878,102335
2.41,241,14246,1,0,0,0,835.87646,905.22766,1616.36353,1746.59729,-0.04553,-0.06653,0.99808,-1.418,0.42,-0.35,6624,73872,102331
2.42,242,14247,1,0,0,0,835.87646,905.22766,1616.82129,1746.67358,-0.04505,-0.06409,0.9971,-1.225,0.438,-0.35,6624,73872,102331
2.43,243,14248,1,0,0,0,835.87646,905.22766,1616.6687,1746.59729,-0.04395,-0.0636,0.99686,-1.05,0.35,-0.385,6623,73874,102327
2.44,244,14249,1,0,0,0,835.87646,905.22766,1616.6687,1746.59729,-0.04407,-0.06201,0.99991,-1.313,0.315,-0.525,6623,73874,102327
2.45,245,14250,1,0,0,0,835.57129,905.22766,1616.28723,1747.13135,-0.04517,-0.06494,0.99783,-1.348,0.455,-0.473,6623,73877,102326
2.46,246,14251,1,0,0,0,835.57129,905.22766,1616.21094,1746.4447,-0.047,-0.06397,0.99722,-1.348,0.473,-0.333,6623,73877,102326
2.47,247,14252,1,0,0,0,835.57129,905.22766,1616.51611,1746.59729,-0.04431,-0.0636,0.996,-1.243,0.49,-0.368,6622,73880,102329
2.48,248,14253,1,0,0,0,835.57129,905.22766,1616.59241,1746.521,-0.04492,-0.06275,0.99698,-1.33,0.473,-0.42,6622,73880,102329
2.49,249,14254,1,0,0,0,835.57129,905.22766,1616.43982,1746.59729,-0.04663,-0.06079,0.99869,-1.155,0.42,-0.28,6620,73877,102329
2.5,250,14255,1,0,0,0,835.57129,905.38025,1616.51611,1746.4447,-0.04395,-0.05994,0.99796,-1.26,0.473,-0.21,6620,73877,102329
2.51,251,14256,1,0,0,0,835.57129,905.38025,1617.27905,1746.82617,-0.04273,-0.06006,0.99673,-1.313,0.28,-0.21,6620,73878,102330
2.52,252,14257,1,0,0,0,835.57129,905.38025,1616.43982,1746.59729,-0.04114,-0.05994,0.99649,-1.365,0.333,-0.088,6620,73878,102330
2.53,253,14258,1,0,0,0,835.57129,905.38025,1616.59241,1746.521,-0.04163,-0.06091,0.99796,-1.453,0.333,-0.245,6619,73876,102326
2.54,254,14259,1,0,0,0,835.57129,905.38025,1617.20276,1746.82617,-0.04407,-0.06384,1.00015,-1.47,0.403,-0.298,6619,73876,102326
2.55,255,14260,1,0,0,0,835.87646,905.38025,1616.59241,1746.521,-0.04382,-0.0647,0.99881,-1.383,0.42,-0.018,6620,73877,102328
2.56,256,14261,1,0,0,0,835.87646,905.38025,1616.28723,1746.59729,-0.04419,-0.0636,0.99966,-1.365,0.455,-0.018,6620,73877,102328
2.57,257,14262,1,0,0,0,835.87646,905.38025,1616.59241,1746.59729,-0.04334,-0.06226,0.99405,-1.383,0.56,-0.35,6618,73877,102326
2.58,258,14263,1,0,0,0,835.87646,905.38025,1616.51611,1746.74988,-0.0437,-0.06153,0.996,-1.453,0.595,-0.245,6618,73877,102326
2.59,259,14264,1,0,0,0,835.87646,905.38025,1616.51611,1746.521,-0.04578,-0.05982,0.99905,-1.575,0.508,-0.245,6624,73875,102328
2.6,260,14265,1,0,0,0,835.87646,905.30396,1616.745,1746.521,-0.04456,-0.06153,0.99796,-1.68,0.525,-0.14,6624,73875,102328
2.61,261,14266,1,0,0,0,835.87646,905.30396,1616.43982,1746.521,-0.04492,-0.0614,0.99869,-1.68,0.403,-0.07,6620,73875,102327
2.62,262,14267,1,0,0,0,835.87646,905.30396,1616.51611,1746.67358,-0.04407,-0.06323,0.99649,-1.47,0.473,-0.018,6620,73875,102327
2.63,263,14268,1,0,0,0,835.87646,905.30396,1616.59241,1746.59729,-0.04346,-0.06226,0.99832,-1.698,0.473,-0.42,6619,73874,102327
2.64,264,14269,1,0,0,0,835.87646,905.30396,1616.51611,1746.29211,-0.04407,-0.06275,0.99734,-1.82,0.613,-0.473,6619,73874,102327
2.65,265,14270,1,0,0,0,835.95276,905.30396,1616.59241,1746.59729,-0.04456,-0.06287,0.99686,-1.505,0.543,-0.508,6619,73874,102324
2.66,266,14271,1,0,0,0,835.95276,905.30396,1616.82129,1746.4447,-0.04346,-0.0636,0.9921,-1.575,0.473,-0.228,6619,73874,102324
2.67,267,14272,1,0,0,0,835.95276,905.30396,1616.43982,1746.29211,-0.04321,-0.06336,0.99905,-1.838,0.665,-0.28,6621,73873,102327
2.68,268,14273,1,0,0,0,835.95276,905.30396,1616.36353,1746.21582,-0.04492,-0.0625,1.0015,-1.68,0.49,-0.245,6621,73873,102327
2.69,269,14274,1,0,0,0,835.95276,905.30396,1617.05017,1746.4447,-0.047,-0.06067,1.00113,-1.295,0.49,-0.333,6621,73875,102335
2.7,270,14275,1,0,0,0,835.95276,905.15137,1616.36353,1746.521,-0.04382,-0.05676,0.99637,-1.383,0.508,-0.385,6621,73875,102335
2.71,271,14276,1,0,0,0,835.95276,905.15137,1616.43982,1746.21582,-0.04187,-0.06055,0.99429,-1.733,0.35,-0.28,6621,73875,102335
2.72,272,14277,1,0,0,0,835.95276,905.15137,1616.6687,1746.36841,-0.0426,-0.0636,0.99527,-1.943,0.438,-0.193,6621,73880,102338
2.73,273,14278,1,0,0,0,835.95276,905.15137,1616.51611,1746.36841,-0.04395,-0.06348,0.99759,-1.995,0.595,-0.333,6621,73880,102338
2.74,274,14279,1,0,0,0,835.95276,905.15137,1616.59241,1746.29211,-0.04468,-0.06275,1.00003,-1.75,0.595,-0.298,6622,73877,102337
2.75,275,14280,1,0,0,0,836.02905,905.15137,1616.59241,1746.36841,-0.04407,-0.0614,0.99722,-1.75,0.578,-0.193,6621,73880,102342
2.76,276,14281,1,0,0,0,836.02905,905.15137,1616.21094,1746.4447,-0.04346,-0.06287,0.99515,-1.715,0.525,-0.088,6621,73880,102342
2.77,277,14282,1,0,0,0,836.02905,905.15137,1616.43982,1746.4447,-0.04419,-0.06287,0.99759,-1.733,0.473,-0.193,6621,73880,102342
2.78,278,14283,1,0,0,0,836.02905,905.15137,1616.6687,1746.59729,-0.04492,-0.06348,0.99954,-1.645,0.56,-0.193,6623,73877,102342
2.79,279,14284,1,0,0,0,836.02905,905.15137,1616.36353,1746.36841,-0.04431,-0.06275,0.99979,-1.523,0.438,-0.14,6623,73877,102342
2.8,280,14285,1,0,0,0,836.02905,905.22766,1616.59241,1746.4447,-0.04566,-0.06311,0.99808,-1.558,0.438,-0.508,6624,73880,102349
2.81,281,14286,1,0,0,0,836.02905,905.22766,1616.745,1746.4447,-0.04468,-0.06201,0.99649,-1.4,0.49,-0.193,6624,73880,102349
2.82,282,14287,1,0,0,0,836.02905,905.22766,1616.36353,1746.36841,-0.04431,-0.06275,0.99564,-1.348,0.543,-0.193,6625,73879,102344
2.83,283,14288,1,0,0,0,836.02905,905.22766,1616.21094,1746.4447,-0.0437,-0.06238,0.99576,-1.575,0.525,-0.263,6625,73879,102344
2.84,284,14289,1,0,0,0,836.02905,905.22766,1616.89758,1746.59729,-0.04431,-0.06079,0.99734,-1.698,0.473,-0.28,6627,73877,102343
2.85,285,14290,1,0,0,0,835.87646,905.22766,1616.43982,1746.67358,-0.04309,-0.06043,0.9982,-1.855,0.543,-0.473,6625,73876,102344
2.86,286,14291,1,0,0,0,835.87646,905.22766,1616.05835,1746.4447,-0.04199,-0.05921,0.99747,-1.855,0.438,-0.263,6625,73876,102344
2.87,287,14292,1,0,0,0,835.87646,905.22766,1616.43982,1746.59729,-0.04224,-0.05945,0.99686,-1.628,0.508,-0.385,6625,73876,102344
2.88,288,14293,1,0,0,0,835.87646,905.22766,1616.43982,1746.36841,-0.04285,-0.05921,0.99808,-1.663,0.595,-0.315,6626,73881,102355
2.89,289,14294,1,0,0,0,835.87646,905.22766,1616.28723,1746.29211,-0.04114,-0.06116,0.99612,-1.75,0.683,-0.315,6626,73881,102355
2.9,290,14295,1,0,0,0,835.87646,905.22766,1616.6687,1746.29211,-0.04334,-0.0603,0.99686,-1.768,0.648,-0.193,6629,73884,102362
2.91,291,14296,1,0,0,0,835.87646,905.22766,1616.21094,1746.29211,-0.04541,-0.05908,0.99796,-1.698,0.735,-0.07,6629,73884,102362
2.92,292,14297,1,0,0,0,835.87646,905.22766,1616.59241,1746.29211,-0.04468,-0.05957,0.99686,-2.013,0.595,-0.193,6631,73886,102361
2.93,293,14298,1,0,0,0,835.87646,905.22766,1616.59241,1746.4447,-0.04456,-0.06153,0.99734,-2.328,0.648,-0.193,6631,73886,102361
2.94,294,14299,1,0,0,0,835.87646,905.22766,1616.59241,1746.36841,-0.04419,-0.06421,0.99686,-2.223,0.595,-0.21,6632,73883,102363
2.95,295,14300,1,0,0,0,835.72388,905.22766,1616.51611,1746.521,-0.04505,-0.06482,0.99832,-2.1,0.525,-0.228,6632,73884,102363
2.96,296,14301,1,0,0,0,835.72388,905.22766,1616.43982,1746.36841,-0.04566,-0.06543,0.99942,-1.96,0.595,-0.28,6632,73884,102363
2.97,297,14302,1,0,0,0,835.72388,905.22766,1616.59241,1746.29211,-0.04456,-0.06446,0.99612,-1.82,0.525,-0.56,6632,73884,102363
2.98,298,14303,1,0,0,0,835.72388,905.22766,1616.51611,1746.4447,-0.0459,-0.06372,0.99686,-1.733,0.543,-0.525,6634,73885,102368
2.99,299,14304,1,0,0,0,835.72388,905.22766,1617.66052,1746.82617,-0.04553,-0.06262,0.99747,-1.873,0.49,-0.403,6634,73885,102368
3.0,300,14305,1,0,0,0,835.72388,905.15137,1616.43982,1746.59729,-0.04553,-0.0614,0.99734,-1.943,0.56,-0.403,6637,73884,102363
3.01,301,14306,1,0,0,0,835.72388,905.15137,1616.21094,1746.29211,-0.04566,-0.06055,0.99625,-1.978,0.508,-0.403,6637,73884,102363
3.02,302,14307,1,0,0,0,835.72388,905.15137,1616.6687,1746.36841,-0.04297,-0.06262,0.99564,-1.96,0.613,-0.525,6638,73884,102370
3.03,303,14308,1,0,0,0,835.72388,905.15137,1616.51611,1746.36841,-0.04419,-0.06287,0.99771,-2.048,0.508,-0.578,6638,73884,102370
3.04,304,14309,1,0,0,0,835.72388,905.15137,1616.51611,1746.36841,-0.04334,-0.06433,0.99857,-2.205,0.525,-0.578,6638,73886,102372
3.05,305,14310,1,0,0,0,835.87646,905.15137,1616.6687,1746.13953,-0.04419,-0.06372,0.99783,-2.083,0.648,-0.595,6641,73886,102374
3.06,306,14311,1,0,0,0,835.87646,905.15137,1616.21094,1746.29211,-0.04505,-0.06079,0.99734,-1.803,0.543,-0.805,6641,73886,102374
3.07,307,14312,1,0,0,0,835.87646,905.15137,1616.43982,1746.36841,-0.04395,-0.06189,0.99734,-1.855,0.49,-0.788,6641,73886,102374
3.08,308,14313,1,0,0,0,835.87646,905.15137,1616.51611,1746.29211,-0.04468,-0.06091,0.99857,-1.925,0.543,-0.578,6642,73888,102380
3.09,309,14314,1,0,0,0,835.87646,905.15137,1616.28723,1746.4447,-0.04395,-0.06262,0.99734,-1.96,0.49,-0.543,6642,73888,102380
3.1,310,14315,1,0,0,0,835.87646,905.07507,1616.51611,1746.13953,-0.0437,-0.0614,0.99637,-1.645,0.508,-0.578,6643,73890,102384
3.11,311,14316,1,0,0,0,835.87646,905.07507,1616.21094,1746.521,-0.04431,-0.0614,0.99637,-1.645,0.508,-0.578,6643,73890,102384
3.12,312,14317,1,0,0,0,835.87646,905.07507,1616.36353,1746.521,-0.04468,-0.06275,0.99576,-1.96,0.595,-0.683,6645,73891,102386
3.13,313,14318,1,0,0,0,835.87646,905.07507,1616.28723,1746.4447,-0.04382,-0.06409,0.99661,-1.925,0.438,-0.578,6645,73891,102386
3.14,314,14319,1,0,0,0,835.87646,905.07507,1617.12646,1746.59729,-0.04334,-0.06262,0.99661,-1.768,0.403,-0.438,6647,73888,102391
3.15,315,14320,1,0,0,0,835.95276,905.07507,1616.59241,1746.4447,-0.04224,-0.06189,0.99796,-1.698,0.455,-0.49,6647,73888,102391
3.16,316,14321,1,0,0,0,835.95276,905.07507,1616.21094,1746.36841,-0.0437,-0.0603,0.99881,-1.733,0.56,-0.368,6646,73891,102391
3.17,317,14322,1,0,0,0,835.95276,905.07507,1616.89758,1746.4447,-0.04529,-0.06165,0.99979,-1.838,0.49,-0.245,6646,73891,102391
3.18,318,14323,1,0,0,0,835.95276,905.07507,1616.43982,1746.21582,-0.04395,-0.06177,0.99649,-1.68,0.455,-0.228,6649,73892,102396
3.19,319,14324,1,0,0,0,835.95276,905.07507,1616.36353,1746.21582,-0.04468,-0.06153,0.99673,-1.628,0.49,-0.42,6649,73892,102396
3.2,320,14325,1,0,0,0,835.95276,905.38025,1616.43982,1746.29211,-0.04529,-0.06214,0.99625,-1.89,0.49,-0.35,6650,73891,102397
3.21,321,14326,1,0,0,0,835.95276,905.38025,1615.98206,1746.21582,-0.04431,-0.06409,0.99466,-2.1,0.525,-0.333,6650,73891,102397
3.22,322,14327,1,0,0,0,835.95276,905.38025,1616.36353,1746.06323,-0.04114,-0.06067,0.996,-1.68,0.403,-0.298,6651,73888,102397
3.23,323,14328,1,0,0,0,835.95276,905.38025,1616.51611,1746.21582,-0.04297,-0.05664,0.99857,-1.68,0.56,0.035,6651,73888,102397
3.24,324,14329,1,0,0,0,835.95276,905.38025,1616.21094,1746.21582,-0.04382,-0.05835,0.99905,-2.135,0.648,-0.053,6654,73894,102406
3.25,325,14330,1,0,0,0,835.87646,905.38025,1616.36353,1746.21582,-0.04541,-0.06275,1.00003,-2.328,0.595,0.0,6654,73894,102406
3.26,326,14331,1,0,0,0,835.87646,905.38025,1616.21094,1746.13953,-0.04456,-0.06641,0.99857,-2.293,0.525,0.088,6655,73893,102408
3.27,327,14332,1,0,0,0,835.87646,905.38025,1616.21094,1746.13953,-0.04736,-0.06653,0.99979,-1.698,0.683,-0.088,6655,73893,102408
3.28,328,14333,1,0,0,0,835.87646,905.38025,1616.28723,1746.13953,-0.0492,-0.06653,0.9993,-1.47,0.543,0.035,6659,73895,102407
3.29,329,14334,1,0,0,0,835.87646,905.38025,1616.89758,1746.29211,-0.04736,-0.06507,0.99503,-1.418,0.595,0.0,6659,73895,102407
3.3,330,14335,1,0,0,0,835.87646,905.07507,1616.28723,1746.36841,-0.0448,-0.06446,0.99503,-1.453,0.56,-0.245,6658,73892,102399
3.31,331,14336,1,0,0,0,835.87646,905.07507,1615.98206,1746.21582,-0.04566,-0.06238,0.99747,-1.663,0.49,-0.333,6658,73892,102399
3.32,332,14337,1,0,0,0,835.87646,905.07507,1616.59241,1746.29211,-0.04553,-0.06531,0.99905,-1.733,0.525,-0.455,6655,73883,102381
3.33,333,14338,1,0,0,0,835.87646,905.07507,1616.28723,1746.21582,-0.04395,-0.06629,0.99881,-1.558,0.385,-0.333,6655,73883,102381
3.34,334,14339,1,0,0,0,835.87646,905.07507,1616.36353,1746.21582,-0.04529,-0.0647,0.99991,-1.295,0.455,-0.385,6654,73882,102360
3.35,335,14340,1,0,0,0,836.10535,905.07507,1616.89758,1746.21582,-0.04468,-0.06177,0.9982,-1.173,0.403,-0.385,6654,73882,102360
3.36,336,14341,1,0,0,0,836.10535,905.07507,1616.21094,1746.21582,-0.04566,-0.06091,0.99783,-1.295,0.42,-0.595,6651,73882,102357
3.37,337,14342,1,0,0,0,836.10535,905.07507,1616.21094,1746.29211,-0.04358,-0.06091,0.99625,-1.383,0.49,-0.438,6651,73882,102357
3.38,338,14343,1,0,0,0,836.10535,905.07507,1616.43982,1746.29211,-0.04553,-0.06275,0.99612,-1.418,0.455,-0.315,6649,73878,102349
3.39,339,14344,1,0,0,0,836.10535,905.07507,1616.13464,1746.13953,-0.04614,-0.06067,0.99881,-1.4,0.455,-0.263,6649,73878,102349
3.4,340,14345,1,0,0,0,836.10535,904.99878,1616.36353,1746.13953,-0.04602,-0.06287,0.99869,-1.505,0.42,-0.21,6644,73877,102353
3.41,341,14346,1,0,0,0,836.10535,904.99878,1616.05835,1746.13953,-0.04456,-0.06397,0.99734,-1.558,0.455,-0.28,6644,73877,102353
3.42,342,14347,1,0,0,0,836.10535,904.99878,1616.21094,1746.21582,-0.04285,-0.06507,0.99734,-1.453,0.368,-0.263,6641,73874,102352
3.43,343,14348,1,0,0,0,836.10535,904.99878,1616.21094,1746.13953,-0.04334,-0.06189,0.99734,-1.278,0.49,-0.14,6641,73874,102352
3.44,344,14349,1,0,0,0,836.10535,904.99878,1616.97388,1746.36841,-0.04443,-0.06079,0.99942,-1.365,0.403,-0.14,6640,73872,102341
3.45,345,14350,1,0,0,0,835.95276,904.99878,1616.36353,1746.521,-0.04346,-0.0614,0.99832,-1.435,0.385,-0.21,6640,73872,102341
3.46,346,14351,1,0,0,0,835.95276,904.99878,1616.28723,1746.13953,-0.04407,-0.06018,0.99588,-1.4,0.403,-0.333,6638,73868,102332
3.47,347,14352,1,0,0,0,835.95276,904.99878,1616.82129,1746.29211,-0.04212,-0.06189,0.99539,-1.4,0.543,-0.35,6638,73868,102332
3.48,348,14353,1,0,0,0,835.95276,904.99878,1616.28723,1746.13953,-0.04505,-0.06189,0.9993,-1.54,0.35,-0.298,6635,73866,102325
3.49,349,14354,1,0,0,0,835.95276,904.99878,1616.36353,1746.13953,-0.0459,-0.06189,0.99869,-1.418,0.455,-0.053,6635,73866,102325
3.5,350,14355,1,0,0,0,835.95276,905.30396,1616.43982,1746.21582,-0.04297,-0.06043,0.996,-1.488,0.525,-0.175,6633,73861,102318
3.51,351,14356,1,0,0,0,835.95276,905.30396,1616.13464,1746.13953,-0.04248,-0.05908,0.996,-1.383,0.455,-0.35,6633,73861,102318
3.52,352,14357,1,0,0,0,835.95276,905.30396,1616.36353,1746.06323,-0.04138,-0.05884,0.99612,-1.488,0.438,-0.21,6629,73863,102320
3.53,353,14358,1,0,0,0,835.95276,905.30396,1616.6687,1746.13953,-0.04382,-0.06006,0.99783,-1.925,0.49,-0.123,6629,73863,102320
3.54,354,14359,1,0,0,0,835.95276,905.30396,1616.36353,1746.13953,-0.04456,-0.06299,0.99857,-1.943,0.49,-0.175,6630,73866,102315
3.55,355,14360,1,0,0,0,835.80017,905.30396,1616.36353,1746.36841,-0.0437,-0.06311,0.99881,-1.89,0.438,-0.07,6630,73866,102315
3.56,356,14361,1,0,0,0,835.80017,905.30396,1616.36353,1746.13953,-0.04505,-0.06104,0.99759,-1.628,0.473,-0.123,6627,73861,102314
3.57,357,14362,1,0,0,0,835.80017,905.30396,1616.28723,1746.13953,-0.04541,-0.06055,0.9971,-1.505,0.63,-0.035,6627,73861,102314
3.58,358,14363,1,0,0,0,835.80017,905.30396,1616.43982,1746.21582,-0.0459,-0.05982,0.99796,-1.558,0.56,-0.228,6625,73858,102308
3.59,359,14364,1,0,0,0,835.80017,905.30396,1616.43982,1746.36841,-0.04456,-0.06091,0.99734,-1.838,0.56,-0.158,6625,73858,102308
3.6,360,14365,1,0,0,0,835.80017,905.15137,1616.43982,1746.21582,-0.04236,-0.06323,0.99722,-1.89,0.508,-0.21,6624,73852,102296
3.61,361,14366,1,0,0,0,835.80017,905.15137,1616.13464,1746.13953,-0.04309,-0.06397,0.99832,-1.873,0.543,-0.105,6624,73852,102296
3.62,362,14367,1,0,0,0,835.80017,905.15137,1616.59241,1746.21582,-0.04431,-0.06384,0.99844,-1.838,0.56,-0.28,6624,73849,102295
3.63,363,14368,1,0,0,0,835.80017,905.15137,1616.36353,1746.21582,-0.04395,-0.06238,0.9993,-1.733,0.613,-0.228,6624,73849,102295
3.64,364,14369,1,0,0,0,835.80017,905.15137,1616.13464,1746.13953,-0.04443,-0.06091,0.99698,-1.82,0.473,-0.123,6628,73850,102295
3.65,365,14370,1,0,0,0,836.02905,905.15137,1616.51611,1746.13953,-0.04419,-0.06079,0.99649,-1.838,0.56,-0.07,6628,73850,102295
3.66,366,14371,1,0,0,0,836.02905,905.15137,1616.21094,1746.06323,-0.04443,-0.0586,0.99832,-1.995,0.578,-0.14,6625,73845,102288
3.67,367,14372,1,0,0,0,836.02905,905.15137,1616.28723,1746.06323,-0.04358,-0.06006,0.99759,-2.083,0.648,-0.053,6625,73845,102288
3.68,368,14373,1,0,0,0,836.02905,905.15137,1616.59241,1746.21582,-0.04419,-0.06153,0.99893,-2.188,0.543,-0.228,6622,73842,102286
3.69,369,14374,1,0,0,0,836.02905,905.15137,1616.21094,1745.98694,-0.04456,-0.06275,0.99979,-1.925,0.543,-0.175,6622,73842,102286
3.7,370,14375,1,0,0,0,836.02905,904.92249,1616.28723,1746.06323,-0.0448,-0.06311,1.00003,-1.89,0.508,-0.035,6621,73841,102278
3.71,371,14376,1,0,0,0,836.02905,904.92249,1616.21094,1745.98694,-0.04468,-0.0636,0.99918,-1.785,0.525,-0.035,6621,73841,102278
3.72,372,14377,1,0,0,0,836.02905,904.92249,1616.36353,1745.98694,-0.0448,-0.06348,0.99722,-1.663,0.578,-0.018,6621,73837,102273
3.73,373,14378,1,0,0,0,836.02905,904.92249,1616.28723,1745.91064,-0.04382,-0.06409,0.99661,-1.785,0.595,-0.193,6621,73837,102273
3.74,374,14379,1,0,0,0,836.02905,904.92249,1616.51611,1745.98694,-0.04529,-0.06275,0.99625,-1.803,0.49,-0.28,6620,73836,102275
3.75,375,14380,1,0,0,0,835.80017,904.92249,1616.13464,1746.4447,-0.04578,-0.0614,0.99783,-1.663,0.438,-0.368,6620,73836,102275
3.76,376,14381,1,0,0,0,835.80017,904.92249,1616.28723,1745.91064,-0.04517,-0.06201,0.99771,-1.698,0.455,-0.21,6620,73834,102275
3.77,377,14382,1,0,0,0,835.80017,904.92249,1616.82129,1746.06323,-0.04395,-0.06177,0.99734,-1.733,0.473,-0.333,6620,73834,102275
3.78,378,14383,1,0,0,0,835.80017,904.92249,1616.28723,1745.91064,-0.0437,-0.06238,0.99637,-1.733,0.525,-0.28,6623,73834,102275
3.79,379,14384,1,0,0,0,835.80017,904.92249,1616.21094,1745.98694,-0.04443,-0.06226,0.99857,-1.733,0.403,-0.175,6623,73834,102275
3.8,380,14385,1,0,0,0,835.80017,905.45654,1616.51611,1746.13953,-0.04431,-0.06226,0.99954,-1.855,0.525,-0.42,6620,73833,102275
3.81,381,14386,1,0,0,0,835.80017,905.45654,1615.98206,1746.13953,-0.04529,-0.06287,1.00027,-1.89,0.49,-0.333,6620,73833,102275
3.82,382,14387,1,0,0,0,835.80017,905.45654,1616.28723,1745.91064,-0.04346,-0.06311,0.99905,-1.82,0.508,-0.193,6622,73833,102276
3.83,383,14388,1,0,0,0,835.80017,905.45654,1616.59241,1746.13953,-0.04358,-0.06214,0.9971,-1.715,0.508,-0.07,6622,73833,102276
3.84,384,14389,1,0,0,0,835.80017,905.45654,1616.13464,1745.98694,-0.04358,-0.06165,0.99551,-1.785,0.525,-0.123,6622,73834,102282
3.85,385,14390,1,0,0,0,835.87646,905.45654,1616.43982,1745.91064,-0.04505,-0.0625,0.99771,-1.768,0.455,-0.14,6622,73834,102282
3.86,386,14391,1,0,0,0,835.87646,905.45654,1616.28723,1746.21582,-0.0448,-0.06433,0.99673,-1.908,0.42,-0.088,6622,73834,102280
3.87,387,14392,1,0,0,0,835.87646,905.45654,1616.05835,1746.06323,-0.04443,-0.06421,0.99698,-1.855,0.473,-0.385,6622,73834,102280
3.88,388,14393,1,0,0,0,835.87646,905.45654,1616.21094,1746.21582,-0.04443,-0.0636,0.99734,-1.68,0.543,-0.298,6624,73837,102281
3.89,389,14394,1,0,0,0,835.87646,905.45654,1616.28723,1746.13953,-0.04248,-0.06299,0.99625,-1.698,0.648,-0.245,6624,73837,102281
3.9,390,14395,1,0,0,0,835.87646,904.92249,1616.43982,1746.29211,-0.04431,-0.06262,0.99661,-1.733,0.543,-0.14,6624,73833,102282
3.91,391,14396,1,0,0,0,835.87646,904.92249,1615.82947,1745.98694,-0.0448,-0.06262,0.99783,-1.733,0.578,-0.315,6624,73833,102282
3.92,392,14397,1,0,0,0,835.87646,904.92249,1616.21094,1745.98694,-0.04321,-0.06384,0.9982,-1.68,0.42,-0.333,6626,73838,102286
3.93,393,14398,1,0,0,0,835.87646,904.92249,1616.05835,1745.91064,-0.04443,-0.0636,0.99808,-1.733,0.438,-0.193,6626,73838,102286
3.94,394,14399,1,0,0,0,835.87646,904.92249,1616.05835,1745.91064,-0.04334,-0.06323,0.9971,-1.663,0.508,-0.21,6626,73839,102294
3.95,395,14400,1,0,0,0,835.72388,904.92249,1616.13464,1747.81799,-0.04431,-0.06153,0.99722,-1.663,0.63,-0.28,6626,73839,102294
3.96,396,14401,1,0,0,0,835.72388,904.92249,1616.05835,1745.91064,-0.04443,-0.06238,0.99771,-1.628,0.595,-0.403,6629,73837,102293
3.97,397,14402,1,0,0,0,835.72388,904.92249,1616.28723,1745.83435,-0.04529,-0.06311,0.99783,-1.593,0.543,-0.385,6629,73837,102293
3.98,398,14403,1,0,0,0,835.72388,904.92249,1616.97388,1746.06323,-0.04382,-0.06214,0.99771,-1.593,0.438,-0.35,6629,73836,102294
3.99,399,14404,1,0,0,0,835.72388,904.92249,1616.21094,1745.98694,-0.0437,-0.06214,0.99747,-1.68,0.333,-0.245,6629,73836,102294
4.0,400,14405,1,0,0,0,835.72388,904.99878,1616.21094,1745.98694,-0.04431,-0.06287,0.99783,-1.733,0.455,-0.315,6627,73839,102301
4.01,401,14406,1,0,0,0,835.72388,904.99878,1616.51611,1746.06323,-0.04395,-0.06104,0.9982,-1.698,0.455,-0.21,6627,73839,102301
4.02,402,14407,1,0,0,0,835.72388,904.99878,1616.21094,1745.83435,-0.04529,-0.06055,0.99857,-1.575,0.578,-0.21,6632,73844,102302
4.03,403,14408,1,0,0,0,835.72388,904.99878,1616.28723,1745.75806,-0.04321,-0.06238,0.996,-1.855,0.56,-0.368,6632,73844,102302
4.04,404,14409,1,0,0,0,835.72388,904.99878,1616.36353,1745.91064,-0.04395,-0.06275,0.9982,-1.873,0.333,-0.385,6630,73848,102304
4.05,405,14410,1,0,0,0,835.72388,904.99878,1616.21094,1746.36841,-0.04541,-0.06311,0.99918,-1.68,0.578,-0.28,6630,73848,102304
4.06,406,14411,1,0,0,0,835.72388,904.99878,1616.13464,1745.75806,-0.04382,-0.06275,0.99893,-1.68,0.508,-0.35,6635,73849,102311
4.07,407,14412,1,0,0,0,835.72388,904.99878,1616.82129,1746.13953,-0.04395,-0.06165,0.99832,-1.715,0.403,-0.35,6635,73849,102311
4.08,408,14413,1,0,0,0,835.72388,904.99878,1616.13464,1745.83435,-0.0437,-0.06323,0.99625,-1.645,0.455,-0.263,6636,73846,102319
4.09,409,14414,1,0,0,0,835.72388,904.99878,1616.21094,1745.91064,-0.04309,-0.06299,0.996,-1.558,0.49,-0.193,6636,73846,102319
4.1,410,14415,1,0,0,0,835.72388,904.92249,1616.36353,1745.75806,-0.0459,-0.06116,0.99869,-1.943,0.543,-0.298,6638,73849,102324
4.11,411,14416,1,0,0,0,835.72388,904.92249,1615.98206,1745.91064,-0.04578,-0.06262,0.9971,-1.925,0.665,-0.333,6638,73849,102324
4.12,412,14417,1,0,0,0,835.72388,904.92249,1616.21094,1745.91064,-0.04468,-0.06275,0.99796,-1.978,0.543,-0.245,6640,73848,102325
4.13,413,14418,1,0,0,0,835.72388,904.92249,1616.43982,1745.98694,-0.0426,-0.06348,0.99576,-1.89,0.578,-0.088,6640,73848,102325
4.14,414,14419,1,0,0,0,835.72388,904.92249,1616.13464,1745.91064,-0.04395,-0.06299,0.99796,-1.75,0.595,-0.193,6641,73851,102331
4.15,415,14420,1,0,0,0,835.72388,904.92249,1616.21094,1745.68176,-0.04419,-0.06153,0.99747,-1.68,0.49,-0.175,6641,73851,102331
4.16,416,14421,1,0,0,0,835.72388,904.92249,1616.36353,1746.13953,-0.04382,-0.06177,0.99796,-1.838,0.473,-0.385,6645,73855,102335
4.17,417,14422,1,0,0,0,835.72388,904.92249,1616.05835,1745.83435,-0.04358,-0.06055,0.99747,-1.785,0.473,-0.298,6645,73855,102335
4.18,418,14423,1,0,0,0,835.72388,904.92249,1616.13464,1745.91064,-0.04321,-0.06226,0.99576,-1.908,0.473,-0.245,6644,73854,102341
4.19,419,14424,1,0,0,0,835.72388,904.92249,1616.21094,1745.91064,-0.04297,-0.0614,0.99625,-1.925,0.525,-0.35,6644,73854,102341
4.2,420,14425,1,0,0,0,835.72388,904.92249,1616.21094,1746.36841,-0.04541,-0.06433,0.9982,-1.873,0.613,-0.455,6645,73855,102345
4.21,421,14426,1,0,0,0,835.72388,904.92249,1615.82947,1745.98694,-0.04578,-0.06311,0.99796,-1.89,0.613,-0.28,6645,73855,102345
4.22,422,14427,1,0,0,0,835.72388,904.92249,1616.05835,1745.91064,-0.04407,-0.06299,0.99771,-1.96,0.49,-0.368,6648,73856,102351
4.23,423,14428,1,0,0,0,835.72388,904.92249,1616.05835,1745.75806,-0.04273,-0.06323,0.99698,-1.803,0.403,-0.315,6648,73856,102351
4.24,424,14429,1,0,0,0,835.72388,904.92249,1616.05835,1745.68176,-0.04346,-0.06323,0.99722,-1.855,0.543,-0.298,6651,73858,102357
4.25,425,14430,1,0,0,0,835.80017,904.92249,1616.21094,1745.83435,-0.04614,-0.06116,0.99747,-1.785,0.56,-0.315,6651,73858,102357
4.26,426,14431,1,0,0,0,835.80017,904.92249,1616.05835,1745.60547,-0.04468,-0.0636,0.99612,-1.82,0.49,-0.385,6651,73855,102362
4.27,427,14432,1,0,0,0,835.80017,904.92249,1616.13464,1745.68176,-0.04529,-0.06482,0.99576,-1.785,0.35,-0.298,6651,73855,102362
4.28,428,14433,1,0,0,0,835.80017,904.92249,1616.59241,1745.83435,-0.04382,-0.06543,0.99429,-1.978,0.455,-0.403,6653,73865,102368
4.29,429,14434,1,0,0,0,835.80017,904.92249,1616.13464,1745.52917,-0.04199,-0.06226,0.99649,-1.89,0.455,-0.455,6653,73865,102368
4.3,430,14435,1,0,0,0,835.80017,904.92249,1615.90576,1745.98694,-0.04273,-0.06067,0.99722,-1.733,0.403,-0.263,6656,73864,102371
4.31,431,14436,1,0,0,0,835.80017,904.92249,1615.90576,1745.83435,-0.0426,-0.05823,0.99857,-1.925,0.455,-0.193,6656,73864,102371
4.32,432,14437,1,0,0,0,835.80017,904.92249,1616.13464,1745.68176,-0.0437,-0.06116,0.99832,-2.153,0.525,-0.105,6656,73865,102376
4.33,433,14438,1,0,0,0,835.80017,904.92249,1616.21094,1745.68176,-0.04407,-0.06372,0.9971,-2.398,0.613,-0.07,6656,73865,102376
4.34,434,14439,1,0,0,0,835.80017,904.92249,1616.51611,1745.83435,-0.04614,-0.06629,0.99722,-2.328,0.595,-0.158,6657,73865,102376
4.35,435,14440,1,0,0,0,835.64758,904.92249,1616.28723,1746.21582,-0.04688,-0.06592,0.99918,-2.1,0.578,-0.175,6657,73865,102376
4.36,436,14441,1,0,0,0,835.64758,904.92249,1616.13464,1745.68176,-0.04651,-0.06665,1.00003,-1.75,0.543,-0.263,6658,73867,102380
4.37,437,14442,1,0,0,0,835.64758,904.92249,1616.21094,1745.83435,-0.04602,-0.06458,0.99637,-1.295,0.595,-0.263,6658,73867,102380
4.38,438,14443,1,0,0,0,835.64758,904.92249,1616.05835,1745.68176,-0.04517,-0.06299,0.99637,-1.418,0.455,-0.315,6661,73860,102371
4.39,439,14444,1,0,0,0,835.64758,904.92249,1616.05835,1745.68176,-0.04431,-0.06287,0.99747,-1.54,0.438,-0.298,6661,73860,102371
4.4,440,14445,1,0,0,0,835.64758,904.99878,1616.43982,1745.68176,-0.04297,-0.06311,0.99771,-1.61,0.49,-0.28,6660,73857,102355
4.41,441,14446,1,0,0,0,835.64758,904.99878,1615.60059,1745.68176,-0.04273,-0.06262,0.99698,-1.645,0.438,-0.438,6660,73857,102355
4.42,442,14447,1,0,0,0,835.64758,904.99878,1615.98206,1745.68176,-0.04321,-0.06275,0.9993,-1.488,0.578,-0.438,6658,73859,102345
4.43,443,14448,1,0,0,0,835.64758,904.99878,1616.21094,1745.75806,-0.04382,-0.06226,0.99734,-1.435,0.613,-0.385,6658,73859,102345
4.44,444,14449,1,0,0,0,835.64758,904.99878,1616.05835,1745.75806,-0.04517,-0.06116,0.99686,-1.61,0.508,-0.35,6657,73854,102347
4.45,445,14450,1,0,0,0,835.57129,904.99878,1616.13464,1745.75806,-0.04285,-0.06299,0.99576,-1.575,0.56,-0.385,6657,73854,102347
4.46,446,14451,1,0,0,0,835.57129,904.99878,1616.21094,1745.83435,-0.04541,-0.06299,0.99686,-1.715,0.508,-0.298,6655,73859,102348
4.47,447,14452,1,0,0,0,835.57129,904.99878,1615.82947,1745.60547,-0.04639,-0.06421,0.99686,-1.663,0.508,-0.298,6655,73859,102348
4.48,448,14453,1,0,0,0,835.57129,904.99878,1615.98206,1745.75806,-0.04419,-0.06421,0.99686,-1.733,0.49,-0.49,6655,73859,102351
4.49,449,14454,1,0,0,0,835.57129,904.99878,1616.21094,1745.68176,-0.04578,-0.06384,0.99747,-1.733,0.42,-0.473,6655,73859,102351
4.5,450,14455,1,0,0,0,835.57129,904.7699,1616.13464,1745.91064,-0.04529,-0.06336,0.99722,-1.628,0.438,-0.385,6652,73861,102347
4.51,451,14456,1,0,0,0,835.57129,904.7699,1615.82947,1745.60547,-0.04517,-0.0625,0.99759,-1.488,0.525,-0.49,6652,73861,102347
4.52,452,14457,1,0,0,0,835.57129,904.7699,1616.13464,1745.52917,-0.04468,-0.06214,0.99734,-1.505,0.455,-0.35,6653,73862,102348
4.53,453,14458,1,0,0,0,835.57129,904.7699,1616.05835,1745.45288,-0.04175,-0.06128,0.9993,-1.628,0.35,-0.42,6653,73862,102348
4.54,454,14459,1,0,0,0,835.57129,904.7699,1616.13464,1745.45288,-0.04175,-0.06018,1.00015,-1.663,0.385,-0.49,6649,73855,102346
4.55,455,14460,1,0,0,0,835.95276,904.7699,1616.36353,1745.68176,-0.04395,-0.06104,1.0004,-1.838,0.49,-0.49,6649,73855,102346
4.56,456,14461,1,0,0,0,835.95276,904.7699,1615.98206,1745.52917,-0.0426,-0.06348,0.99747,-1.838,0.455,-0.28,6649,73858,102346
4.57,457,14462,1,0,0,0,835.95276,904.7699,1616.13464,1745.68176,-0.04382,-0.06372,0.99515,-1.733,0.42,-0.35,6649,73858,102346
4.58,458,14463,1,0,0,0,835.95276,904.7699,1616.51611,1745.68176,-0.04529,-0.06201,0.99661,-1.418,0.63,-0.28,6647,73858,102346
4.59,459,14464,1,0,0,0,835.95276,904.7699,1616.13464,1745.60547,-0.04529,-0.06214,0.99771,-1.505,0.508,-0.385,6647,73858,102346
4.6,460,14465,1,0,0,0,835.95276,904.84619,1615.98206,1745.52917,-0.04627,-0.06226,0.99942,-1.54,0.368,-0.578,6648,73860,102344
4.61,461,14466,1,0,0,0,835.95276,904.84619,1616.13464,1745.68176,-0.04492,-0.0636,0.99893,-1.645,0.403,-0.403,6648,73860,102344
4.62,462,14467,1,0,0,0,835.95276,904.84619,1616.05835,1745.52917,-0.04566,-0.06397,0.99832,-1.645,0.42,-0.368,6647,73861,102348
4.63,463,14468,1,0,0,0,835.95276,904.84619,1616.05835,1745.68176,-0.04334,-0.06262,0.99564,-1.435,0.35,-0.473,6647,73861,102348
4.64,464,14469,1,0,0,0,835.95276,904.84619,1616.36353,1745.75806,-0.04456,-0.06079,0.99747,-1.33,0.473,-0.508,6646,73862,102351
4.65,465,14470,1,0,0,0,835.87646,904.84619,1616.21094,1745.83435,-0.04566,-0.06018,0.99808,-1.33,0.525,-0.403,6646,73862,102351
4.66,466,14471,1,0,0,0,835.87646,904.84619,1615.90576,1745.60547,-0.04443,-0.05945,0.99966,-1.4,0.333,-0.42,6646,73861,102353
4.67,467,14472,1,0,0,0,835.87646,904.84619,1616.21094,1745.68176,-0.04273,-0.0614,0.99832,-1.435,0.455,-0.455,6646,73861,102353
4.68,468,14473,1,0,0,0,835.87646,904.84619,1616.05835,1745.52917,-0.04151,-0.06079,0.99686,-1.645,0.455,-0.49,6651,73862,102356
4.69,469,14474,1,0,0,0,835.87646,904.84619,1616.05835,1745.83435,-0.04334,-0.06177,0.99857,-1.943,0.56,-0.525,6651,73862,102356
4.7,470,14475,1,0,0,0,835.87646,904.7699,1616.21094,1745.52917,-0.04395,-0.06336,1.00003,-1.838,0.613,-0.525,6649,73863,102357
4.71,471,14476,1,0,0,0,835.87646,904.7699,1615.82947,1745.60547,-0.04566,-0.06226,1.00027,-1.838,0.473,-0.455,6649,73863,102357
4.72,472,14477,1,0,0,0,835.87646,904.7699,1616.05835,1745.83435,-0.0459,-0.06287,0.99783,-1.698,0.56,-0.315,6649,73861,102357
4.73,473,14478,1,0,0,0,835.87646,904.7699,1616.36353,1745.75806,-0.04566,-0.06091,0.99747,-1.698,0.508,-0.49,6649,73861,102357
4.74,474,14479,1,0,0,0,835.87646,904.7699,1615.98206,1745.60547,-0.04431,-0.06116,0.99686,-1.82,0.49,-0.438,6647,73862,102358
4.75,475,14480,1,0,0,0,835.57129,904.7699,1615.90576,1745.68176,-0.04443,-0.06165,0.99649,-1.75,0.473,-0.28,6647,73862,102358
4.76,476,14481,1,0,0,0,835.57129,904.7699,1616.21094,1745.60547,-0.0448,-0.06153,0.99893,-1.715,0.473,-0.228,6646,73860,102357
4.77,477,14482,1,0,0,0,835.57129,904.7699,1615.90576,1745.45288,-0.04468,-0.06177,0.99979,-1.68,0.508,-0.228,6646,73860,102357
4.78,478,14483,1,0,0,0,835.57129,904.7699,1615.98206,1745.52917,-0.04431,-0.06262,0.99759,-1.628,0.438,-0.21,6647,73864,102356
4.79,479,14484,1,0,0,0,835.57129,904.7699,1616.28723,1745.75806,-0.04456,-0.06397,0.99771,-1.855,0.35,-0.473,6647,73864,102356
4.8,480,14485,1,0,0,0,835.57129,904.92249,1615.82947,1745.83435,-0.04517,-0.06323,0.99759,-1.75,0.438,-0.473,6649,73862,102360
4.81,481,14486,1,0,0,0,835.57129,904.92249,1615.67688,1745.37659,-0.04382,-0.06262,0.99564,-1.733,0.49,-0.455,6649,73862,102360
4.82,482,14487,1,0,0,0,835.57129,904.92249,1615.98206,1745.45288,-0.0448,-0.06226,0.99673,-1.75,0.525,-0.49,6649,73862,102360
4.83,483,14488,1,0,0,0,835.57129,904.92249,1615.98206,1745.37659,-0.04443,-0.06177,0.99722,-1.68,0.473,-0.42,6648,73860,102363
4.84,484,14489,1,0,0,0,835.57129,904.92249,1615.90576,1745.45288,-0.04566,-0.06018,0.99881,-1.715,0.438,-0.333,6648,73860,102363
4.85,485,14490,1,0,0,0,835.72388,904.92249,1615.98206,1745.37659,-0.04407,-0.0603,0.99783,-1.715,0.438,-0.385,6651,73862,102364
4.86,486,14491,1,0,0,0,835.72388,904.92249,1615.75317,1745.45288,-0.04431,-0.06128,0.99637,-1.75,0.473,-0.28,6651,73862,102364
4.87,487,14492,1,0,0,0,835.72388,904.92249,1615.98206,1745.52917,-0.04273,-0.06104,0.99539,-1.75,0.385,-0.368,6653,73864,102372
4.88,488,14493,1,0,0,0,835.72388,904.92249,1616.36353,1745.60547,-0.04358,-0.06043,0.99661,-1.838,0.473,-0.42,6653,73864,102372
4.89,489,14494,1,0,0,0,835.72388,904.92249,1615.98206,1745.45288,-0.04578,-0.06372,1.0004,-2.013,0.42,-0.298,6653,73868,102375
4.9,490,14495,1,0,0,0,835.72388,904.7699,1616.21094,1745.45288,-0.04395,-0.06421,0.99905,-1.855,0.438,-0.315,6656,73866,102376
4.91,491,14496,1,0,0,0,835.72388,904.7699,1616.21094,1745.68176,-0.04492,-0.06262,0.9982,-1.61,0.403,-0.403,6656,73866,102376
4.92,492,14497,1,0,0,0,835.72388,904.7699,1615.98206,1745.37659,-0.04505,-0.06153,0.99808,-1.645,0.455,-0.508,6656,73866,102376
4.93,493,14498,1,0,0,0,835.72388,904.7699,1615.90576,1745.52917,-0.0448,-0.06189,0.99649,-1.558,0.438,-0.473,6657,73868,102386
4.94,494,14499,1,0,0,0,835.72388,904.7699,1616.36353,1745.60547,-0.04419,-0.06287,0.99588,-1.575,0.455,-0.543,6657,73868,102386
4.95,495,14500,1,0,0,0,835.495,904.7699,1615.98206,1745.68176,-0.04468,-0.06262,0.99747,-1.698,0.49,-0.525,6658,73868,102382
4.96,496,14501,1,0,0,0,835.495,904.7699,1615.52429,1745.45288,-0.0448,-0.06299,0.9971,-1.873,0.473,-0.438,6658,73868,102382
4.97,497,14502,1,0,0,0,835.495,904.7699,1615.75317,1745.37659,-0.04529,-0.06165,0.99796,-1.838,0.508,-0.473,6660,73874,102391
4.98,498,14503,1,0,0,0,835.495,904.7699,1615.67688,1745.52917,-0.04419,-0.06214,0.99783,-1.768,0.403,-0.385,6660,73874,102391
4.99,499,14504,1,0,0,0,835.495,904.7699,1615.82947,1745.60547,-0.04297,-0.0625,0.99857,-1.803,0.473,-0.21,6661,73877,102398
5.0,500,14505,1,0,0,0,835.495,904.99878,1615.90576,1745.60547,-0.0426,-0.06201,0.99734,-1.575,0.473,-0.245,6665,73877,102400
5.01,501,14506,1,0,0,0,835.495,904.99878,1615.60059,1745.37659,-0.04419,-0.06177,0.99783,-1.645,0.473,-0.228,6665,73877,102400
5.02,502,14507,1,0,0,0,835.495,904.99878,1615.98206,1745.37659,-0.04334,-0.06214,0.99759,-1.733,0.438,-0.473,6665,73877,102400
5.03,503,14508,1,0,0,0,835.495,904.99878,1616.28723,1745.45288,-0.04443,-0.06067,0.99783,-1.75,0.473,-0.508,6664,73879,102404
5.04,504,14509,1,0,0,0,835.495,904.99878,1615.90576,1745.45288,-0.04456,-0.0614,0.99649,-1.733,0.56,-0.403,6664,73879,102404
5.05,505,14510,1,0,0,0,835.64758,904.99878,1615.82947,1745.45288,-0.04529,-0.06079,0.99979,-1.61,0.455,-0.42,6668,73875,102406
5.06,506,14511,1,0,0,0,835.64758,904.99878,1616.13464,1745.52917,-0.04443,-0.06201,0.99869,-1.715,0.543,-0.438,6668,73875,102406
5.07,507,14512,1,0,0,0,835.64758,904.99878,1615.98206,1745.45288,-0.0437,-0.06226,0.99893,-1.768,0.438,-0.35,6672,73880,102412
5.08,508,14513,1,0,0,0,835.64758,904.99878,1615.98206,1745.37659,-0.04248,-0.06299,0.99673,-1.575,0.403,-0.368,6672,73880,102412
5.09,509,14514,1,0,0,0,835.64758,904.99878,1616.51611,1745.60547,-0.04334,-0.06104,0.99698,-1.575,0.403,-0.245,6669,73882,102415
5.1,510,14515,1,0,0,0,835.64758,904.61731,1615.98206,1745.75806,-0.04578,-0.05969,0.99869,-1.75,0.49,-0.455,6673,73886,102419
5.11,511,14516,1,0,0,0,835.64758,904.61731,1615.67688,1745.30029,-0.04468,-0.06104,0.99783,-1.698,0.473,-0.525,6673,73886,102419
5.12,512,14517,1,0,0,0,835.64758,904.61731,1615.90576,1745.37659,-0.0448,-0.06079,0.99783,-1.663,0.525,-0.508,6673,73886,102419
5.13,513,14518,1,0,0,0,835.64758,904.61731,1615.98206,1745.45288,-0.04443,-0.0614,0.99686,-1.768,0.525,-0.455,6676,73887,102426
5.14,514,14519,1,0,0,0,835.64758,904.61731,1615.82947,1745.37659,-0.04456,-0.0625,0.99869,-1.82,0.49,-0.245,6676,73887,102426
5.15,515,14520,1,0,0,0,835.72388,904.61731,1616.05835,1745.30029,-0.04297,-0.06238,0.99857,-1.628,0.49,-0.42,6675,73884,102429
5.16,516,14521,1,0,0,0,835.72388,904.61731,1615.67688,1745.45288,-0.04309,-0.06238,0.99649,-1.645,0.49,-0.42,6675,73884,102429
5.17,517,14522,1,0,0,0,835.72388,904.61731,1615.90576,1745.37659,-0.0448,-0.06116,0.99698,-1.68,0.438,-0.49,6679,73888,102430
5.18,518,14523,1,0,0,0,835.72388,904.61731,1616.28723,1745.60547,-0.0437,-0.0625,0.99649,-1.628,0.578,-0.333,6679,73888,102430
5.19,519,14524,1,0,0,0,835.72388,904.61731,1615.98206,1745.52917,-0.04627,-0.06079,0.9982,-1.47,0.438,-0.438,6681,73890,102440
5.2,520,14525,1,0,0,0,835.72388,904.61731,1616.05835,1745.224,-0.04529,-0.06165,0.99979,-1.733,0.613,-0.56,6681,73890,102440
5.21,521,14526,1,0,0,0,835.72388,904.61731,1616.51611,1745.52917,-0.04505,-0.06226,0.99954,-1.61,0.543,-0.63,6685,73893,102442
5.22,522,14527,1,0,0,0,835.72388,904.61731,1615.82947,1745.45288,-0.04382,-0.06226,0.99844,-1.698,0.56,-0.438,6685,73893,102442
5.23,523,14528,1,0,0,0,835.72388,904.61731,1615.90576,1745.60547,-0.04382,-0.06104,0.99869,-1.75,0.508,-0.508,6689,73892,102448
5.24,524,14529,1,0,0,0,835.72388,904.61731,1616.36353,1745.75806,-0.0437,-0.06214,0.99698,-1.593,0.42,-0.263,6689,73892,102448
5.25,525,14530,1,0,0,0,835.64758,904.61731,1615.98206,1745.45288,-0.04541,-0.06079,0.99661,-1.488,0.473,-0.42,6689,73894,102453
5.26,526,14531,1,0,0,0,835.64758,904.61731,1615.67688,1745.37659,-0.04358,-0.0614,0.996,-1.715,0.613,-0.42,6689,73894,102453
5.27,527,14532,1,0,0,0,835.64758,904.61731,1615.98206,1745.60547,-0.04456,-0.06177,0.99771,-1.768,0.613,-0.385,6688,73898,102455
5.28,528,14533,1,0,0,0,835.64758,904.61731,1615.82947,1745.30029,-0.0448,-0.06226,0.99991,-1.82,0.578,-0.175,6688,73898,102455
5.29,529,14534,1,0,0,0,835.64758,904.61731,1615.98206,1745.30029,-0.04529,-0.06104,0.99979,-1.505,0.508,-0.298,6690,73898,102461
5.3,530,14535,1,0,0,0,835.64758,904.6936,1615.98206,1745.37659,-0.0437,-0.06165,0.99637,-1.435,0.455,-0.245,6690,73898,102461
5.31,531,14536,1,0,0,0,835.64758,904.6936,1615.90576,1745.224,-0.04273,-0.06262,0.99612,-1.593,0.368,-0.298,6694,73899,102464
5.32,532,14537,1,0,0,0,835.64758,904.6936,1615.98206,1745.14771,-0.04443,-0.06055,0.99869,-1.628,0.385,-0.473,6694,73899,102464
5.33,533,14538,1,0,0,0,835.64758,904.6936,1615.98206,1745.07141,-0.04517,-0.06104,0.99808,-1.698,0.49,-0.385,6696,73900,102465
5.34,534,14539,1,0,0,0,835.64758,904.6936,1615.98206,1745.07141,-0.04578,-0.06006,0.99844,-1.715,0.543,-0.298,6696,73900,102465
5.35,535,14540,1,0,0,0,835.64758,904.6936,1615.82947,1745.224,-0.04419,-0.06397,0.996,-1.628,0.455,-0.543,6699,73903,102470
5.36,536,14541,1,0,0,0,835.64758,904.6936,1616.21094,1745.30029,-0.04285,-0.06262,0.99588,-1.663,0.455,-0.368,6699,73903,102470
5.37,537,14542,1,0,0,0,835.64758,904.6936,1616.05835,1745.07141,-0.04297,-0.05969,0.99722,-1.61,0.49,-0.35,6697,73902,102473
5.38,538,14543,1,0,0,0,835.64758,904.6936,1615.98206,1745.07141,-0.04175,-0.05774,0.9993,-1.645,0.455,-0.228,6697,73902,102473
5.39,539,14544,1,0,0,0,835.64758,904.6936,1616.59241,1745.52917,-0.04273,-0.05591,0.99881,-1.628,0.508,-0.193,6700,73901,102473
5.4,540,14545,1,0,0,0,835.64758,904.7699,1615.90576,1745.30029,-0.0437,-0.06018,0.9971,-2.153,0.56,-0.14,6700,73901,102473
5.41,541,14546,1,0,0,0,835.64758,904.7699,1615.98206,1745.224,-0.04419,-0.06482,0.9971,-2.223,0.7,-0.158,6700,73904,102477
5.42,542,14547,1,0,0,0,835.64758,904.7699,1616.13464,1745.45288,-0.04627,-0.06433,1.00089,-2.135,0.63,-0.245,6700,73904,102477
5.43,543,14548,1,0,0,0,835.64758,904.7699,1615.90576,1745.224,-0.04688,-0.06629,1.00027,-1.68,0.56,-0.21,6705,73902,102481
5.44,544,14549,1,0,0,0,835.64758,904.7699,1615.67688,1745.37659,-0.04798,-0.06446,0.99991,-1.278,0.613,-0.35,6705,73902,102481
5.45,545,14550,1,0,0,0,835.495,904.7699,1615.98206,1745.07141,-0.04297,-0.06055,0.99796,-1.173,0.63,-0.35,6705,73900,102474
5.46,546,14551,1,0,0,0,835.495,904.7699,1615.14282,1746.82617,-0.04297,-0.06055,0.99307,-1.05,0.455,-0.35,6705,73900,102474
5.47,547,14552,1,0,0,0,835.495,904.7699,1615.67688,1745.14771,-0.04175,-0.06189,0.99576,-1.575,0.438,-0.175,6705,73893,102457
5.48,548,14553,1,0,0,0,835.495,904.7699,1615.90576,1745.37659,-0.04224,-0.0625,0.99771,-1.715,0.508,-0.21,6705,73893,102457
5.49,549,14554,1,0,0,0,835.495,904.7699,1615.60059,1745.14771,-0.04309,-0.06336,0.99905,-1.68,0.543,-0.263,6704,73881,102431
5.5,550,14555,1,0,0,0,835.495,904.46472,1615.98206,1745.30029,-0.04321,-0.0636,0.99722,-1.488,0.56,-0.368,6704,73881,102431
5.51,551,14556,1,0,0,0,835.495,904.46472,1616.28723,1745.37659,-0.04443,-0.0614,0.99966,-1.505,0.508,-0.245,6705,73889,102435
5.52,552,14557,1,0,0,0,835.495,904.46472,1615.75317,1745.224,-0.04468,-0.05969,0.99722,-1.61,0.49,-0.158,6705,73889,102435
5.53,553,14558,1,0,0,0,835.495,904.46472,1615.82947,1745.30029,-0.04285,-0.05908,0.99576,-1.61,0.473,-0.228,6703,73887,102431
5.54,554,14559,1,0,0,0,835.495,904.46472,1616.36353,1745.30029,-0.04419,-0.05994,0.99539,-1.68,0.525,-0.175,6703,73887,102431
5.55,555,14560,1,0,0,0,835.64758,904.46472,1615.90576,1745.45288,-0.04602,-0.06091,0.99625,-1.75,0.63,-0.315,6700,73888,102431
5.56,556,14561,1,0,0,0,835.64758,904.46472,1615.60059,1745.224,-0.04505,-0.06226,0.99796,-1.803,0.56,-0.298,6700,73888,102431
5.57,557,14562,1,0,0,0,835.64758,904.46472,1615.98206,1745.224,-0.04407,-0.0625,0.9982,-1.803,0.49,-0.368,6703,73888,102427
5.58,558,14563,1,0,0,0,835.64758,904.46472,1615.82947,1745.224,-0.04334,-0.06311,0.99649,-1.628,0.42,-0.333,6703,73888,102427
5.59,559,14564,1,0,0,0,835.64758,904.46472,1615.90576,1745.14771,-0.04248,-0.06165,0.99649,-1.698,0.473,-0.21,6696,73884,102423
5.6,560,14565,1,0,0,0,835.64758,904.61731,1616.05835,1745.30029,-0.04212,-0.06067,0.99686,-1.61,0.473,-0.438,6696,73884,102423
5.61,561,14566,1,0,0,0,835.64758,904.61731,1615.82947,1745.14771,-0.04126,-0.06079,0.99564,-1.663,0.683,-0.49,6696,73883,102420
5.62,562,14567,1,0,0,0,835.64758,904.61731,1615.90576,1745.30029,-0.0448,-0.06055,0.99771,-1.838,0.42,-0.525,6696,73883,102420
5.63,563,14568,1,0,0,0,835.64758,904.61731,1616.13464,1745.224,-0.04578,-0.06128,0.99954,-1.785,0.473,-0.403,6696,73885,102414
5.64,564,14569,1,0,0,0,835.64758,904.61731,1615.90576,1745.14771,-0.0437,-0.06177,0.99869,-1.803,0.543,-0.438,6696,73885,102414
5.65,565,14570,1,0,0,0,835.64758,904.61731,1615.98206,1745.14771,-0.04505,-0.06189,0.99857,-1.68,0.578,-0.543,6696,73884,102410
5.66,566,14571,1,0,0,0,835.64758,904.61731,1616.13464,1745.30029,-0.04395,-0.0625,0.99564,-1.82,0.49,-0.525,6696,73884,102410
5.67,567,14572,1,0,0,0,835.64758,904.61731,1615.82947,1745.224,-0.0437,-0.06128,0.99673,-1.715,0.473,-0.543,6696,73877,102407
5.68,568,14573,1,0,0,0,835.64758,904.61731,1615.67688,1745.14771,-0.04468,-0.05957,0.99881,-1.733,0.525,-0.49,6696,73877,102407
5.69,569,14574,1,0,0,0,835.64758,904.61731,1616.51611,1745.37659,-0.04443,-0.06165,0.99759,-1.768,0.438,-0.455,6692,73877,102403
5.7,570,14575,1,0,0,0,835.64758,904.46472,1615.90576,1745.224,-0.04517,-0.06201,0.99783,-1.908,0.595,-0.473,6692,73877,102403
5.71,571,14576,1,0,0,0,835.64758,904.46472,1615.82947,1745.14771,-0.04419,-0.06238,0.99771,-1.943,0.525,-0.543,6690,73874,102398
5.72,572,14577,1,0,0,0,835.64758,904.46472,1616.36353,1745.37659,-0.04443,-0.0603,0.99905,-1.523,0.455,-0.368,6690,73874,102398
5.73,573,14578,1,0,0,0,835.64758,904.46472,1615.90576,1745.14771,-0.04553,-0.05786,0.99698,-1.313,0.455,-0.403,6694,73875,102399
5.74,574,14579,1,0,0,0,835.64758,904.46472,1615.82947,1745.37659,-0.0426,-0.05982,0.9949,-1.488,0.438,-0.473,6694,73875,102399
5.75,575,14580,1,0,0,0,835.72388,904.46472,1616.13464,1745.224,-0.04224,-0.06128,0.99612,-1.715,0.403,-0.298,6694,73872,102397
5.76,576,14581,1,0,0,0,835.72388,904.46472,1615.60059,1745.30029,-0.04175,-0.06177,0.99686,-1.873,0.49,-0.35,6694,73872,102397
5.77,577,14582,1,0,0,0,835.72388,904.46472,1615.75317,1745.14771,-0.04321,-0.06091,0.99771,-1.873,0.455,-0.403,6692,73868,102391
5.78,578,14583,1,0,0,0,835.72388,904.46472,1616.05835,1745.30029,-0.04431,-0.06043,0.99771,-1.908,0.56,-0.42,6692,73868,102391
5.79,579,14584,1,0,0,0,835.72388,904.46472,1615.82947,1745.07141,-0.04285,-0.0625,0.99637,-1.89,0.42,-0.385,6688,73867,102391
5.8,580,14585,1,0,0,0,835.72388,904.38843,1615.98206,1745.07141,-0.04468,-0.06128,0.99783,-1.768,0.438,-0.333,6688,73867,102391
5.81,581,14586,1,0,0,0,835.72388,904.38843,1615.82947,1745.224,-0.04321,-0.05957,0.99661,-1.803,0.403,-0.193,6690,73864,102386
5.82,582,14587,1,0,0,0,835.72388,904.38843,1615.75317,1745.07141,-0.04456,-0.05908,0.99734,-1.75,0.508,-0.21,6690,73864,102386
5.83,583,14588,1,0,0,0,835.72388,904.38843,1615.90576,1745.07141,-0.0426,-0.0603,0.99796,-1.873,0.49,-0.315,6689,73860,102381
5.84,584,14589,1,0,0,0,835.72388,904.38843,1616.51611,1745.224,-0.04468,-0.05921,0.99808,-1.873,0.508,-0.175,6689,73860,102381
5.85,585,14590,1,0,0,0,835.57129,904.38843,1615.75317,1745.30029,-0.04407,-0.06091,0.99625,-1.803,0.508,-0.228,6687,73863,102385
5.86,586,14591,1,0,0,0,835.57129,904.38843,1615.52429,1744.91882,-0.04505,-0.06091,0.99698,-1.803,0.543,-0.14,6687,73863,102385
5.87,587,14592,1,0,0,0,835.57129,904.38843,1615.98206,1744.91882,-0.04431,-0.0636,0.99686,-1.908,0.49,-0.175,6687,73858,102380
5.88,588,14593,1,0,0,0,835.57129,904.38843,1615.90576,1745.07141,-0.04517,-0.06189,0.99747,-1.663,0.438,-0.315,6687,73858,102380
5.89,589,14594,1,0,0,0,835.57129,904.38843,1615.90576,1744.91882,-0.04602,-0.06165,0.99881,-1.663,0.438,-0.543,6691,73863,102383
5.9,590,14595,1,0,0,0,835.57129,904.7699,1616.13464,1745.07141,-0.04431,-0.06226,0.99722,-1.68,0.543,-0.455,6691,73863,102383
5.91,591,14596,1,0,0,0,835.57129,904.7699,1615.75317,1744.91882,-0.04456,-0.06055,0.9982,-1.785,0.543,-0.385,6689,73859,102378
5.92,592,14597,1,0,0,0,835.57129,904.7699,1615.90576,1745.07141,-0.04431,-0.0614,0.99771,-1.803,0.613,-0.35,6689,73859,102378
5.93,593,14598,1,0,0,0,835.57129,904.7699,1616.05835,1745.07141,-0.04321,-0.06079,0.99734,-1.663,0.455,-0.193,6691,73858,102380
5.94,594,14599,1,0,0,0,835.57129,904.7699,1615.82947,1745.14771,-0.04407,-0.06067,0.9982,-1.82,0.438,-0.455,6691,73858,102380
5.95,595,14600,1,0,0,0,835.72388,904.7699,1615.82947,1744.99512,-0.0426,-0.0625,0.99637,-1.715,0.403,-0.49,6692,73858,102382
5.96,596,14601,1,0,0,0,835.72388,904.7699,1615.60059,1745.07141,-0.04395,-0.06153,0.99649,-1.68,0.42,-0.315,6692,73858,102382
5.97,597,14602,1,0,0,0,835.72388,904.7699,1615.75317,1745.14771,-0.04334,-0.06165,0.99673,-1.663,0.438,-0.245,6690,73857,102385
5.98,598,14603,1,0,0,0,835.72388,904.7699,1615.67688,1745.07141,-0.04407,-0.06043,0.99942,-1.61,0.595,-0.333,6690,73857,102385
5.99,599,14604,1,0,0,0,835.72388,904.7699,1616.82129,1745.45288,-0.04517,-0.06372,0.99747,-1.558,0.578,-0.245,6694,73861,102386
6.0,600,14605,1,0,0,0,835.72388,904.54102,1615.82947,1745.30029,-0.04419,-0.06238,0.99625,-1.54,0.56,-0.245,6694,73861,102386
6.01,601,14606,1,0,0,0,835.72388,904.54102,1615.52429,1745.07141,-0.04419,-0.06226,0.99539,-1.365,0.385,-0.525,6695,73858,102385
6.02,602,14607,1,0,0,0,835.72388,904.54102,1615.98206,1745.14771,-0.04505,-0.06262,0.99588,-1.645,0.508,-0.578,6695,73858,102385
6.03,603,14608,1,0,0,0,835.72388,904.54102,1615.67688,1744.99512,-0.04627,-0.05994,0.99759,-1.698,0.403,-0.665,6697,73854,102387
6.04,604,14609,1,0,0,0,835.72388,904.54102,1615.60059,1745.07141,-0.04334,-0.05908,0.9971,-1.575,0.473,-0.455,6697,73854,102387
6.05,605,14610,1,0,0,0,835.57129,904.54102,1615.82947,1744.91882,-0.04248,-0.05774,0.99918,-1.628,0.403,-0.42,6695,73859,102395
6.06,606,14611,1,0,0,0,835.57129,904.54102,1615.448,1744.91882,-0.04089,-0.05811,0.99783,-1.698,0.385,-0.385,6695,73859,102395
6.07,607,14612,1,0,0,0,835.57129,904.54102,1615.82947,1744.91882,-0.0426,-0.05957,0.99918,-1.803,0.543,-0.438,6696,73861,102395
6.08,608,14613,1,0,0,0,835.57129,904.54102,1615.90576,1744.99512,-0.04419,-0.06006,0.99954,-1.785,0.455,-0.298,6696,73861,102395
6.09,609,14614,1,0,0,0,835.57129,904.54102,1615.82947,1744.99512,-0.04468,-0.06055,0.99722,-1.645,0.525,-0.21,6698,73857,102397
6.1,610,14615,1,0,0,0,835.57129,904.54102,1615.90576,1745.07141,-0.04541,-0.06043,0.99759,-1.505,0.543,-0.368,6698,73857,102397
6.11,611,14616,1,0,0,0,835.57129,904.54102,1615.90576,1744.99512,-0.04395,-0.06116,0.99734,-1.54,0.543,-0.525,6701,73857,102398
6.12,612,14617,1,0,0,0,835.57129,904.54102,1615.75317,1745.07141,-0.04431,-0.05933,0.9993,-1.68,0.473,-0.35,6701,73857,102398
6.13,613,14618,1,0,0,0,835.57129,904.54102,1615.82947,1744.99512,-0.04212,-0.05982,0.99734,-1.663,0.543,-0.158,6699,73858,102403
6.14,614,14619,1,0,0,0,835.57129,904.54102,1616.28723,1745.07141,-0.04224,-0.0603,0.99869,-1.715,0.438,-0.455,6699,73858,102403
6.15,615,14620,1,0,0,0,835.57129,904.54102,1615.82947,1745.224,-0.04297,-0.06116,0.99942,-1.908,0.385,-0.368,6705,73863,102407
6.16,616,14621,1,0,0,0,835.57129,904.54102,1615.60059,1744.91882,-0.04285,-0.06104,0.99673,-1.768,0.403,-0.245,6705,73863,102407
6.17,617,14622,1,0,0,0,835.57129,904.54102,1615.90576,1744.99512,-0.04358,-0.06006,0.99625,-1.61,0.543,-0.228,6705,73863,102410
6.18,618,14623,1,0,0,0,835.57129,904.54102,1615.75317,1744.99512,-0.04407,-0.05969,0.99612,-1.628,0.648,-0.14,6705,73863,102410
6.19,619,14624,1,0,0,0,835.57129,904.54102,1615.82947,1744.91882,-0.04395,-0.05811,0.99637,-1.803,0.525,-0.035,6709,73866,102413
6.2,620,14625,1,0,0,0,835.57129,904.61731,1615.98206,1744.84253,-0.04407,-0.0603,0.99783,-1.995,0.438,-0.175,6709,73866,102413
6.21,621,14626,1,0,0,0,835.57129,904.61731,1615.75317,1744.91882,-0.04358,-0.06116,0.99722,-1.89,0.49,-0.07,6709,73863,102413
6.22,622,14627,1,0,0,0,835.57129,904.61731,1615.75317,1744.91882,-0.04334,-0.06262,0.99796,-1.995,0.42,0.018,6709,73863,102413
6.23,623,14628,1,0,0,0,835.57129,904.61731,1616.28723,1745.07141,-0.04407,-0.06348,0.99747,-2.013,0.455,-0.123,6706,73864,102418
6.24,624,14629,1,0,0,0,835.57129,904.61731,1616.13464,1744.99512,-0.04358,-0.06507,0.99796,-1.908,0.543,-0.053,6706,73864,102418
6.25,625,14630,1,0,0,0,835.72388,904.61731,1616.21094,1744.76624,-0.04431,-0.06226,0.99783,-1.61,0.508,-0.14,6711,73867,102423
6.26,626,14631,1,0,0,0,835.72388,904.61731,1616.05835,1744.99512,-0.04431,-0.06079,0.99722,-1.575,0.473,-0.298,6711,73867,102423
6.27,627,14632,1,0,0,0,835.72388,904.61731,1616.13464,1744.99512,-0.04505,-0.05921,0.99747,-1.575,0.508,-0.368,6712,73867,102427
6.28,628,14633,1,0,0,0,835.72388,904.61731,1616.05835,1744.91882,-0.04541,-0.06043,0.99625,-1.698,0.438,-0.403,6712,73867,102427
6.29,629,14634,1,0,0,0,835.72388,904.61731,1616.97388,1745.07141,-0.04614,-0.0614,0.99686,-1.838,0.473,-0.228,6718,73868,102431
6.3,630,14635,1,0,0,0,835.72388,904.46472,1616.13464,1745.30029,-0.04492,-0.06262,0.99783,-1.75,0.368,-0.385,6718,73868,102431
6.31,631,14636,1,0,0,0,835.72388,904.46472,1615.60059,1744.91882,-0.04578,-0.06201,0.99966,-1.698,0.403,-0.368,6715,73870,102431
6.32,632,14637,1,0,0,0,835.72388,904.46472,1616.13464,1745.07141,-0.04566,-0.06165,1.00015,-1.663,0.543,-0.228,6715,73870,102431
6.33,633,14638,1,0,0,0,835.72388,904.46472,1615.67688,1744.76624,-0.04309,-0.06104,0.99832,-1.558,0.438,-0.21,6717,73873,102437
6.34,634,14639,1,0,0,0,835.72388,904.46472,1615.67688,1744.91882,-0.04443,-0.06128,0.9971,-1.47,0.49,-0.315,6717,73873,102437
6.35,635,14640,1,0,0,0,835.87646,904.46472,1615.90576,1744.99512,-0.04456,-0.05933,0.99857,-1.715,0.543,-0.525,6720,73876,102442
6.36,636,14641,1,0,0,0,835.87646,904.46472,1615.3717,1744.68994,-0.04346,-0.05933,0.99808,-1.803,0.56,-0.595,6720,73876,102442
6.37,637,14642,1,0,0,0,835.87646,904.46472,1615.67688,1744.84253,-0.04492,-0.05969,0.99808,-1.785,0.455,-0.438,6720,73873,102438
6.38,638,14643,1,0,0,0,835.87646,904.46472,1615.90576,1744.76624,-0.04358,-0.06116,0.99661,-1.803,0.49,-0.35,6720,73873,102438
6.39,639,14644,1,0,0,0,835.87646,904.46472,1615.67688,1744.84253,-0.04443,-0.06043,0.99759,-1.61,0.508,-0.35,6722,73871,102448
6.4,640,14645,1,0,0,0,835.87646,904.38843,1615.60059,1744.84253,-0.0448,-0.06043,0.99918,-1.628,0.49,-0.315,6722,73871,102448
6.41,641,14646,1,0,0,0,835.87646,904.38843,1615.75317,1744.84253,-0.04236,-0.06055,0.9982,-1.663,0.49,-0.298,6726,73875,102450
6.42,642,14647,1,0,0,0,835.87646,904.38843,1615.75317,1744.84253,-0.04443,-0.05835,0.99832,-1.54,0.508,-0.193,6726,73875,102450
6.43,643,14648,1,0,0,0,835.87646,904.38843,1615.82947,1744.68994,-0.04505,-0.05701,0.99844,-1.628,0.403,-0.35,6729,73879,102451
6.44,644,14649,1,0,0,0,835.87646,904.38843,1615.82947,1744.91882,-0.04492,-0.05835,0.99661,-1.663,0.525,-0.438,6729,73879,102451
6.45,645,14650,1,0,0,0,835.57129,904.38843,1615.67688,1745.07141,-0.04346,-0.06226,0.99527,-1.995,0.525,-0.525,6728,73876,102461
6.46,646,14651,1,0,0,0,835.57129,904.38843,1615.52429,1744.84253,-0.04382,-0.0614,0.99661,-1.925,0.49,-0.508,6728,73876,102461
6.47,647,14652,1,0,0,0,835.57129,904.38843,1616.36353,1744.99512,-0.04285,-0.05872,0.99771,-1.733,0.438,-0.28,6729,73878,102471
6.48,648,14653,1,0,0,0,835.57129,904.38843,1615.67688,1744.84253,-0.04187,-0.05615,0.99905,-1.785,0.403,-0.21,6729,73878,102471
6.49,649,14654,1,0,0,0,835.57129,904.38843,1615.67688,1744.84253,-0.04004,-0.05396,0.99783,-1.873,0.403,-0.228,6732,73886,102474
6.5,650,14655,1,0,0,0,835.57129,904.46472,1615.98206,1744.68994,-0.04224,-0.06018,0.99844,-2.38,0.63,-0.158,6732,73886,102474
6.51,651,14656,1,0,0,0,835.57129,904.46472,1615.60059,1744.68994,-0.04566,-0.06458,0.99893,-2.415,0.648,-0.035,6734,73888,102482
6.52,652,14657,1,0,0,0,835.57129,904.46472,1615.60059,1744.76624,-0.04736,-0.06787,0.99832,-2.223,0.595,-0.175,6734,73888,102482
6.53,653,14658,1,0,0,0,835.57129,904.46472,1615.98206,1744.84253,-0.04859,-0.06787,0.99979,-1.785,0.525,-0.315,6738,73887,102488
6.54,654,14659,1,0,0,0,835.57129,904.46472,1615.52429,1744.61365,-0.04883,-0.0658,1.00101,-1.418,0.543,-0.42,6738,73887,102488
6.55,655,14660,1,0,0,0,835.57129,904.46472,1615.82947,1744.76624,-0.04639,-0.06165,0.99319,-0.893,0.525,-0.263,6737,73885,102478
6.56,656,14661,1,0,0,0,835.57129,904.46472,1615.52429,1744.76624,-0.0426,-0.06018,0.99442,-1.295,0.455,-0.42,6737,73885,102478
6.57,657,14662,1,0,0,0,835.57129,904.46472,1615.60059,1744.84253,-0.04187,-0.06128,0.99673,-1.628,0.35,-0.578,6736,73882,102465
6.58,658,14663,1,0,0,0,835.57129,904.46472,1615.60059,1744.76624,-0.04248,-0.06153,0.9993,-1.593,0.35,-0.525,6736,73882,102465
6.59,659,14664,1,0,0,0,835.57129,904.46472,1615.75317,1744.76624,-0.04395,-0.06189,1.00089,-1.593,0.508,-0.543,6736,73883,102459
6.6,660,14665,1,0,0,0,835.57129,904.15955,1615.75317,1744.84253,-0.0426,-0.06018,0.99673,-1.243,0.473,-0.315,6736,73883,102459
6.61,661,14666,1,0,0,0,835.57129,904.15955,1615.60059,1744.68994,-0.04395,-0.06018,0.99673,-1.243,0.473,-0.315,6735,73878,102452
6.62,662,14667,1,0,0,0,835.57129,904.15955,1616.21094,1744.99512,-0.0437,-0.05872,0.99612,-1.54,0.438,-0.595,6735,73878,102452
6.63,663,14668,1,0,0,0,835.57129,904.15955,1615.67688,1744.68994,-0.04395,-0.0586,0.99612,-1.61,0.578,-0.473,6734,73879,102454
6.64,664,14669,1,0,0,0,835.57129,904.15955,1615.60059,1744.61365,-0.04651,-0.05994,0.9982,-1.838,0.525,-0.42,6734,73879,102454
6.65,665,14670,1,0,0,0,835.72388,904.15955,1615.82947,1744.84253,-0.04602,-0.06104,0.99796,-1.96,0.543,-0.455,6731,73883,102459
6.66,666,14671,1,0,0,0,835.72388,904.15955,1615.3717,1744.68994,-0.04566,-0.0636,0.9993,-1.873,0.508,-0.595,6731,73883,102459
6.67,667,14672,1,0,0,0,835.72388,904.15955,1615.67688,1744.84253,-0.04407,-0.06299,0.99905,-1.4,0.438,-0.403,6733,73886,102461
6.68,668,14673,1,0,0,0,835.72388,904.15955,1615.90576,1744.76624,-0.04285,-0.0614,0.9982,-1.278,0.455,-0.455,6733,73886,102461
6.69,669,14674,1,0,0,0,835.72388,904.15955,1615.60059,1744.68994,-0.04553,-0.06055,0.996,-1.278,0.49,-0.63,6731,73885,102454
6.7,670,14675,1,0,0,0,835.72388,904.38843,1615.67688,1744.76624,-0.04529,-0.05957,0.99307,-1.488,0.648,-0.7,6731,73885,102454
6.71,671,14676,1,0,0,0,835.72388,904.38843,1615.82947,1744.76624,-0.04382,-0.05786,0.99527,-1.505,0.543,-0.49,6728,73883,102450
6.72,672,14677,1,0,0,0,835.72388,904.38843,1615.60059,1744.84253,-0.04492,-0.05884,0.99979,-1.943,0.438,-0.578,6728,73883,102450
6.73,673,14678,1,0,0,0,835.72388,904.38843,1615.52429,1744.76624,-0.04321,-0.05799,0.99979,-1.803,0.368,-0.595,6725,73880,102451
6.74,674,14679,1,0,0,0,835.72388,904.38843,1615.90576,1744.91882,-0.04199,-0.05774,1.00027,-1.768,0.455,-0.49,6725,73880,102451
6.75,675,14680,1,0,0,0,835.495,904.38843,1615.75317,1744.76624,-0.04199,-0.05762,0.99979,-1.838,0.578,-0.595,6722,73880,102445
6.76,676,14681,1,0,0,0,835.495,904.38843,1615.448,1744.68994,-0.04297,-0.05835,0.99722,-1.908,0.525,-0.42,6722,73880,102445
6.77,677,14682,1,0,0,0,835.495,904.38843,1615.90576,1744.76624,-0.04248,-0.05725,0.99466,-1.733,0.613,-0.28,6723,73879,102447
6.78,678,14683,1,0,0,0,835.495,904.38843,1615.67688,1744.84253,-0.0437,-0.05737,0.99637,-1.978,0.56,-0.28,6723,73879,102447
6.79,679,14684,1,0,0,0,835.495,904.38843,1615.75317,1744.68994,-0.04407,-0.05933,0.9971,-2.17,0.543,-0.28,6724,73878,102449
6.8,680,14685,1,0,0,0,835.495,904.54102,1616.05835,1744.76624,-0.04785,-0.0614,0.99857,-2.275,0.525,-0.315,6724,73878,102449
6.81,681,14686,1,0,0,0,835.495,904.54102,1615.448,1744.68994,-0.04614,-0.06287,0.99991,-2.153,0.508,-0.42,6724,73882,102448
6.82,682,14687,1,0,0,0,835.495,904.54102,1615.67688,1744.68994,-0.04395,-0.06079,0.99661,-1.663,0.42,-0.105,6724,73882,102448
6.83,683,14688,1,0,0,0,835.495,904.54102,1616.05835,1744.84253,-0.04419,-0.05957,0.99661,-1.488,0.56,-0.368,6722,73880,102448
6.84,684,14689,1,0,0,0,835.495,904.54102,1615.60059,1744.76624,-0.04285,-0.05847,0.99637,-1.61,0.473,-0.368,6722,73880,102448
6.85,685,14690,1,0,0,0,835.4187,904.54102,1615.75317,1744.68994,-0.04224,-0.05872,0.99686,-1.768,0.455,-0.28,6719,73879,102446
6.86,686,14691,1,0,0,0,835.4187,904.54102,1615.82947,1744.76624,-0.0426,-0.05823,0.9971,-1.75,0.49,-0.333,6719,73879,102446
6.87,687,14692,1,0,0,0,835.4187,904.54102,1615.60059,1744.68994,-0.04175,-0.05884,0.99625,-1.838,0.578,-0.245,6719,73876,102441
6.88,688,14693,1,0,0,0,835.4187,904.54102,1615.60059,1744.68994,-0.04212,-0.05969,0.99747,-2.065,0.438,-0.07,6719,73876,102441
6.89,689,14694,1,0,0,0,835.4187,904.54102,1615.90576,1744.99512,-0.04321,-0.05884,0.99869,-2.1,0.56,-0.158,6718,73873,102438
6.9,690,14695,1,0,0,0,835.4187,904.23584,1615.448,1745.07141,-0.04443,-0.0603,0.99905,-2.083,0.648,-0.455,6718,73873,102438
6.91,691,14696,1,0,0,0,835.4187,904.23584,1615.52429,1744.53735,-0.04419,-0.06091,0.99905,-2.1,0.648,-0.228,6716,73874,102438
6.92,692,14697,1,0,0,0,835.4187,904.23584,1615.67688,1744.61365,-0.04382,-0.06104,0.99857,-2.013,0.508,-0.298,6716,73874,102438
6.93,693,14698,1,0,0,0,835.4187,904.23584,1615.52429,1744.53735,-0.04407,-0.06043,0.99747,-1.873,0.578,-0.105,6716,73874,102438
6.94,694,14699,1,0,0,0,835.4187,904.23584,1615.60059,1744.46106,-0.04468,-0.05994,0.99686,-1.925,0.578,-0.14,6715,73873,102436
6.95,695,14700,1,0,0,0,835.80017,904.23584,1615.82947,1744.84253,-0.04675,-0.06067,0.99869,-2.03,0.595,-0.088,6718,73871,102434
6.96,696,14701,1,0,0,0,835.80017,904.23584,1615.14282,1744.61365,-0.04407,-0.06287,0.99734,-1.873,0.543,-0.123,6718,73871,102434
6.97,697,14702,1,0,0,0,835.80017,904.23584,1615.448,1744.68994,-0.04468,-0.06189,0.99832,-1.89,0.578,-0.193,6718,73871,102434
6.98,698,14703,1,0,0,0,835.80017,904.23584,1616.21094,1744.91882,-0.04675,-0.06079,0.99796,-1.75,0.49,-0.193,6717,73873,102435
6.99,699,14704,1,0,0,0,835.80017,904.23584,1615.448,1744.84253,-0.04541,-0.06177,0.99796,-1.855,0.525,-0.28,6717,73873,102435
7.0,700,14705,1,0,0,0,835.80017,904.38843,1615.60059,1744.61365,-0.04431,-0.06275,0.99844,-1.995,0.455,-0.298,6719,73874,102433
7.01,701,14706,1,0,0,0,835.80017,904.38843,1615.75317,1744.76624,-0.04395,-0.0625,0.99722,-1.68,0.42,-0.175,6719,73874,102433
7.02,702,14707,1,0,0,0,835.80017,904.38843,1615.3717,1744.61365,-0.0437,-0.06153,0.99734,-1.68,0.49,-0.123,6714,73868,102435
7.03,703,14708,1,0,0,0,835.80017,904.38843,1615.52429,1744.61365,-0.0459,-0.05908,0.99844,-1.54,0.49,-0.21,6714,73868,102435
7.04,704,14709,1,0,0,0,835.80017,904.38843,1615.75317,1744.68994,-0.04517,-0.0603,0.99783,-1.803,0.595,-0.245,6717,73872,102431
7.05,705,14710,1,0,0,0,835.26611,904.38843,1615.52429,1744.84253,-0.04541,-0.06226,0.99661,-1.733,0.49,-0.315,6718,73869,102429
7.06,706,14711,1,0,0,0,835.26611,904.38843,1614.99023,1744.53735,-0.04321,-0.06299,0.99417,-1.698,0.473,-0.368,6718,73869,102429
7.07,707,14712,1,0,0,0,835.26611,904.38843,1615.3717,1744.61365,-0.0448,-0.06177,0.9971,-1.645,0.473,-0.175,6718,73869,102429
7.08,708,14713,1,0,0,0,835.26611,904.38843,1615.3717,1744.46106,-0.04492,-0.06079,0.99869,-1.628,0.525,-0.158,6718,73870,102434
7.09,709,14714,1,0,0,0,835.26611,904.38843,1615.3717,1744.53735,-0.04407,-0.06177,0.99966,-1.488,0.578,-0.123,6718,73870,102434
7.1,710,14715,1,0,0,0,835.26611,904.31213,1615.75317,1744.53735,-0.04334,-0.05933,0.99673,-1.383,0.49,-0.263,6718,73867,102435
7.11,711,14716,1,0,0,0,835.26611,904.31213,1615.14282,1744.53735,-0.04395,-0.05835,0.9971,-1.505,0.42,-0.21,6718,73867,102435
7.12,712,14717,1,0,0,0,835.26611,904.31213,1615.52429,1744.53735,-0.04309,-0.06043,0.99527,-1.628,0.49,-0.403,6715,73866,102429
7.13,713,14718,1,0,0,0,835.26611,904.31213,1615.90576,1744.61365,-0.0437,-0.06055,0.99661,-1.698,0.56,-0.333,6715,73866,102429
7.14,714,14719,1,0,0,0,835.26611,904.31213,1615.52429,1744.46106,-0.04505,-0.06006,0.99966,-1.47,0.525,-0.333,6718,73867,102434
7.15,715,14720,1,0,0,0,835.57129,904.31213,1615.52429,1744.61365,-0.04431,-0.05969,0.99722,-1.435,0.455,-0.438,6721,73863,102440
7.16,716,14721,1,0,0,0,835.57129,904.31213,1615.448,1744.46106,-0.04431,-0.06104,0.99857,-1.628,0.403,-0.35,6721,73863,102440
7.17,717,14722,1,0,0,0,835.57129,904.31213,1615.60059,1744.46106,-0.04443,-0.0603,0.99747,-1.645,0.42,-0.228,6721,73863,102440
7.18,718,14723,1,0,0,0,835.57129,904.31213,1615.60059,1744.53735,-0.04346,-0.06226,0.9971,-1.61,0.455,-0.298,6725,73867,102435
7.19,719,14724,1,0,0,0,835.57129,904.31213,1616.13464,1744.53735,-0.04517,-0.05945,0.99942,-1.488,0.543,-0.315,6725,73867,102435
7.2,720,14725,1,0,0,0,835.57129,904.23584,1615.60059,1744.91882,-0.04443,-0.05933,0.99808,-1.558,0.455,-0.403,6721,73872,102439
7.21,721,14726,1,0,0,0,835.57129,904.23584,1615.06653,1744.53735,-0.0448,-0.05884,0.99893,-1.505,0.385,-0.21,6721,73872,102439
7.22,722,14727,1,0,0,0,835.57129,904.23584,1615.60059,1744.46106,-0.04199,-0.06043,0.99527,-1.715,0.578,-0.508,6723,73872,102441
7.23,723,14728,1,0,0,0,835.57129,904.23584,1615.52429,1744.46106,-0.04407,-0.05994,0.99698,-1.733,0.525,-0.298,6723,73872,102441
7.24,724,14729,1,0,0,0,835.57129,904.23584,1615.448,1744.53735,-0.04199,-0.06043,0.99673,-1.663,0.508,-0.368,6725,73870,102443
7.25,725,14730,1,0,0,0,835.64758,904.23584,1615.67688,1744.68994,-0.04456,-0.05945,0.99698,-1.61,0.473,-0.333,6723,73868,102444
7.26,726,14731,1,0,0,0,835.64758,904.23584,1615.21912,1744.76624,-0.04395,-0.05933,0.99832,-1.698,0.49,-0.333,6723,73868,102444
7.27,727,14732,1,0,0,0,835.64758,904.23584,1615.60059,1744.53735,-0.0448,-0.05982,0.9993,-1.733,0.49,-0.315,6723,73868,102444
7.28,728,14733,1,0,0,0,835.64758,904.23584,1615.90576,1744.53735,-0.04334,-0.06018,0.99783,-1.628,0.473,-0.368,6727,73871,102448
7.29,729,14734,1,0,0,0,835.64758,904.23584,1615.448,1744.53735,-0.04163,-0.06043,0.99747,-1.68,0.473,-0.42,6727,73871,102448
7.3,730,14735,1,0,0,0,835.64758,904.15955,1615.60059,1744.23218,-0.04431,-0.05908,0.99954,-1.645,0.473,-0.403,6727,73872,102447
7.31,731,14736,1,0,0,0,835.64758,904.15955,1615.67688,1744.68994,-0.0437,-0.05945,0.99698,-1.61,0.595,-0.298,6727,73872,102447
7.32,732,14737,1,0,0,0,835.64758,904.15955,1615.448,1744.61365,-0.04431,-0.05884,0.99783,-1.663,0.508,-0.21,6728,73871,102445
7.33,733,14738,1,0,0,0,835.64758,904.15955,1615.52429,1744.53735,-0.04431,-0.06055,0.9971,-1.838,0.473,-0.385,6728,73871,102445
7.34,734,14739,1,0,0,0,835.64758,904.15955,1615.82947,1744.84253,-0.0448,-0.06018,0.99649,-1.733,0.578,-0.263,6732,73871,102450
7.35,735,14740,1,0,0,0,835.495,904.15955,1615.60059,1744.91882,-0.04395,-0.05872,0.99966,-1.628,0.613,-0.088,6732,73871,102450
7.36,736,14741,1,0,0,0,835.495,904.15955,1615.3717,1744.46106,-0.04358,-0.05896,0.99966,-1.575,0.665,-0.333,6733,73873,102451
7.37,737,14742,1,0,0,0,835.495,904.15955,1615.60059,1744.53735,-0.04492,-0.05982,0.99979,-1.803,0.543,-0.175,6733,73873,102451
7.38,738,14743,1,0,0,0,835.495,904.15955,1615.448,1744.46106,-0.04529,-0.06006,0.99783,-1.89,0.508,-0.228,6732,73871,102452
7.39,739,14744,1,0,0,0,835.495,904.15955,1615.448,1744.38477,-0.04395,-0.06275,0.99734,-2.013,0.525,-0.403,6732,73871,102452
7.4,740,14745,1,0,0,0,835.495,904.38843,1615.67688,1744.61365,-0.04529,-0.06104,0.99673,-1.785,0.595,-0.385,6733,73872,102453
7.41,741,14746,1,0,0,0,835.495,904.38843,1615.21912,1744.38477,-0.04224,-0.05908,0.99466,-1.68,0.543,-0.438,6733,73872,102453
7.42,742,14747,1,0,0,0,835.495,904.38843,1615.448,1744.30847,-0.0437,-0.0564,0.99881,-1.645,0.56,-0.35,6737,73875,102455
7.43,743,14748,1,0,0,0,835.495,904.38843,1615.67688,1744.30847,-0.04089,-0.0553,0.99869,-1.768,0.525,-0.525,6737,73875,102455
7.44,744,14749,1,0,0,0,835.495,904.38843,1615.448,1744.15588,-0.04273,-0.05652,0.9993,-1.943,0.525,-0.543,6735,73874,102459
7.45,745,14750,1,0,0,0,835.4187,904.38843,1615.3717,1744.46106,-0.04651,-0.06299,0.99979,-2.328,0.455,-0.315,6735,73874,102459
7.46,746,14751,1,0,0,0,835.4187,904.38843,1615.75317,1744.38477,-0.04505,-0.06519,0.99771,-2.1,0.543,-0.193,6736,73871,102460
7.47,747,14752,1,0,0,0,835.4187,904.38843,1615.448,1744.23218,-0.04798,-0.06409,0.99942,-1.838,0.438,-0.263,6736,73871,102460
7.48,748,14753,1,0,0,0,835.4187,904.38843,1615.448,1744.30847,-0.04663,-0.0636,0.9982,-1.61,0.42,-0.403,6738,73871,102454
7.49,749,14754,1,0,0,0,835.4187,904.38843,1615.98206,1744.53735,-0.04675,-0.06043,0.99844,-1.33,0.455,-0.298,6738,73871,102454
7.5,750,14755,1,0,0,0,835.4187,904.15955,1615.3717,1744.76624,-0.04358,-0.05835,0.99673,-1.505,0.473,-0.385,6737,73866,102442
7.51,751,14756,1,0,0,0,835.4187,904.15955,1615.29541,1744.30847,-0.04334,-0.06067,0.99686,-1.873,0.525,-0.49,6737,73866,102442
7.52,752,14757,1,0,0,0,835.4187,904.15955,1615.52429,1744.38477,-0.04273,-0.06079,0.99893,-1.908,0.525,-0.42,6735,73858,102421
7.53,753,14758,1,0,0,0,835.4187,904.15955,1615.29541,1744.38477,-0.04309,-0.06287,0.99893,-1.96,0.473,-0.385,6735,73858,102421
7.54,754,14759,1,0,0,0,835.4187,904.15955,1615.3717,1744.46106,-0.04248,-0.06287,0.99759,-1.768,0.42,-0.525,6734,73857,102413
7.55,755,14760,1,0,0,0,835.4187,904.15955,1615.60059,1744.46106,-0.04492,-0.05896,0.99673,-1.645,0.543,-0.438,6734,73857,102413
7.56,756,14761,1,0,0,0,835.4187,904.15955,1615.29541,1744.38477,-0.04407,-0.05872,0.99588,-1.593,0.473,-0.508,6732,73858,102400
7.57,757,14762,1,0,0,0,835.4187,904.15955,1615.29541,1744.46106,-0.04492,-0.05872,0.99637,-1.75,0.403,-0.56,6732,73858,102400
7.58,758,14763,1,0,0,0,835.4187,904.15955,1615.75317,1744.84253,-0.04541,-0.05896,0.99686,-1.785,0.508,-0.368,6729,73854,102399
7.59,759,14764,1,0,0,0,835.4187,904.15955,1615.14282,1744.38477,-0.04529,-0.05982,0.99722,-1.82,0.578,-0.385,6729,73854,102399
7.6,760,14765,1,0,0,0,835.4187,904.00696,1615.448,1744.38477,-0.04456,-0.0614,0.99759,-1.838,0.49,-0.42,6728,73853,102396
7.61,761,14766,1,0,0,0,835.4187,904.00696,1615.52429,1744.53735,-0.04187,-0.0625,0.99429,-1.75,0.473,-0.333,6728,73853,102396
7.62,762,14767,1,0,0,0,835.4187,904.00696,1615.29541,1744.38477,-0.04346,-0.06079,0.99783,-1.68,0.525,-0.578,6721,73851,102391
7.63,763,14768,1,0,0,0,835.4187,904.00696,1615.21912,1744.30847,-0.04321,-0.06006,0.99734,-1.698,0.525,-0.543,6721,73851,102391
7.64,764,14769,1,0,0,0,835.4187,904.00696,1615.75317,1744.53735,-0.04431,-0.05969,0.99881,-1.733,0.508,-0.578,6719,73848,102388
7.65,765,14770,1,0,0,0,835.26611,904.00696,1615.448,1744.68994,-0.04236,-0.06006,0.99747,-1.82,0.543,-0.56,6719,73848,102388
7.66,766,14771,1,0,0,0,835.26611,904.00696,1615.29541,1744.30847,-0.04297,-0.05957,0.99551,-1.89,0.648,-0.613,6718,73845,102378
7.67,767,14772,1,0,0,0,835.26611,904.00696,1615.60059,1744.38477,-0.04517,-0.05835,0.99844,-1.925,0.595,-0.543,6718,73845,102378
7.68,768,14773,1,0,0,0,835.26611,904.00696,1615.29541,1744.38477,-0.04541,-0.06055,0.99869,-1.803,0.49,-0.438,6714,73842,102372
7.69,769,14774,1,0,0,0,835.26611,904.00696,1615.3717,1744.30847,-0.04492,-0.06006,0.99747,-1.838,0.368,-0.42,6714,73842,102372
7.7,770,14775,1,0,0,0,835.26611,904.31213,1615.448,1744.46106,-0.04419,-0.05908,0.99673,-1.785,0.543,-0.403,6711,73840,102365
7.71,771,14776,1,0,0,0,835.26611,904.31213,1615.21912,1744.30847,-0.04346,-0.06018,0.99649,-1.715,0.455,-0.403,6711,73840,102365
7.72,772,14777,1,0,0,0,835.26611,904.31213,1615.52429,1744.38477,-0.04456,-0.05896,0.99991,-1.82,0.595,-0.49,6710,73838,102362
7.73,773,14778,1,0,0,0,835.26611,904.31213,1615.82947,1744.46106,-0.0448,-0.0614,0.99905,-2.065,0.613,-0.63,6710,73838,102362
7.74,774,14779,1,0,0,0,835.26611,904.31213,1615.52429,1744.38477,-0.04492,-0.0614,0.99893,-2.013,0.438,-0.385,6706,73838,102356
7.75,775,14780,1,0,0,0,835.4187,904.31213,1615.52429,1744.23218,-0.04468,-0.05982,0.99832,-1.593,0.56,-0.385,6706,73838,102356
7.76,776,14781,1,0,0,0,835.4187,904.31213,1615.90576,1744.38477,-0.04443,-0.05908,0.9971,-1.435,0.508,-0.333,6707,73839,102355
7.77,777,14782,1,0,0,0,835.4187,904.31213,1615.52429,1744.30847,-0.04541,-0.0564,0.99673,-1.54,0.385,-0.245,6707,73839,102355
7.78,778,14783,1,0,0,0,835.4187,904.31213,1615.52429,1744.30847,-0.04321,-0.05689,0.99442,-1.75,0.42,-0.473,6704,73835,102352
7.79,779,14784,1,0,0,0,835.4187,904.31213,1616.05835,1744.53735,-0.04419,-0.05823,0.99686,-1.803,0.42,-0.455,6704,73835,102352
7.8,780,14785,1,0,0,0,835.4187,904.31213,1615.52429,1744.68994,-0.04321,-0.06018,0.99673,-2.065,0.578,-0.298,6704,73830,102348
7.81,781,14786,1,0,0,0,835.4187,904.31213,1615.21912,1744.30847,-0.04346,-0.06055,0.99881,-2.17,0.525,-0.455,6704,73830,102348
7.82,782,14787,1,0,0,0,835.4187,904.31213,1615.52429,1744.30847,-0.04273,-0.06018,0.99893,-2.083,0.525,-0.333,6702,73827,102345
7.83,783,14788,1,0,0,0,835.4187,904.31213,1615.3717,1744.38477,-0.04419,-0.06006,0.99991,-1.978,0.543,-0.298,6702,73827,102345
7.84,784,14789,1,0,0,0,835.4187,904.31213,1615.448,1744.46106,-0.04382,-0.06091,0.99893,-1.978,0.683,-0.35,6702,73824,102340
7.85,785,14790,1,0,0,0,835.495,904.31213,1615.52429,1744.30847,-0.04443,-0.06091,0.99759,-1.908,0.543,-0.245,6702,73824,102340
7.86,786,14791,1,0,0,0,835.495,904.31213,1615.3717,1744.23218,-0.04529,-0.05957,0.99771,-1.855,0.595,-0.14,6702,73823,102336
7.87,787,14792,1,0,0,0,835.495,904.31213,1615.448,1744.38477,-0.04566,-0.0586,0.99734,-1.803,0.543,-0.228,6702,73823,102336
7.88,788,14793,1,0,0,0,835.495,904.31213,1615.82947,1744.46106,-0.04431,-0.06067,0.99637,-1.908,0.543,-0.123,6701,73824,102336
7.89,789,14794,1,0,0,0,835.495,904.31213,1615.448,1744.38477,-0.0448,-0.06177,0.99783,-1.803,0.473,-0.175,6701,73824,102336
7.9,790,14795,1,0,0,0,835.495,904.08325,1615.448,1744.15588,-0.04431,-0.06153,0.99942,-1.68,0.455,-0.053,6701,73826,102336
7.91,791,14796,1,0,0,0,835.495,904.08325,1615.98206,1744.68994,-0.04456,-0.06018,1.00027,-1.803,0.42,-0.053,6701,73826,102336
7.92,792,14797,1,0,0,0,835.495,904.08325,1615.29541,1744.23218,-0.04407,-0.06079,0.99844,-1.698,0.298,-0.105,6698,73824,102337
7.93,793,14798,1,0,0,0,835.495,904.08325,1615.3717,1744.23218,-0.04309,-0.06116,0.99686,-1.873,0.508,0.0,6698,73824,102337
7.94,794,14799,1,0,0,0,835.495,904.08325,1615.98206,1744.30847,-0.04321,-0.05982,0.99637,-1.82,0.613,-0.105,6698,73819,102330
7.95,795,14800,1,0,0,0,835.34241,904.08325,1615.21912,1744.76624,-0.04236,-0.05982,0.99698,-2.03,0.543,-0.105,6698,73819,102330
7.96,796,14801,1,0,0,0,835.34241,904.08325,1615.21912,1744.23218,-0.04541,-0.05884,0.99881,-2.048,0.49,-0.053,6697,73820,102335
7.97,797,14802,1,0,0,0,835.34241,904.08325,1615.21912,1744.23218,-0.04321,-0.05799,0.99869,-1.995,0.508,-0.158,6697,73820,102335
7.98,798,14803,1,0,0,0,835.34241,904.08325,1615.448,1744.30847,-0.04505,-0.0586,0.9982,-2.065,0.508,0.07,6695,73823,102336
7.99,799,14804,1,0,0,0,835.34241,904.08325,1615.3717,1744.15588,-0.04321,-0.06067,0.9971,-1.908,0.473,-0.053,6695,73823,102336
8.0,800,14805,1,0,0,0,835.34241,904.23584,1615.3717,1744.15588,-0.04273,-0.06165,0.99759,-1.96,0.49,-0.193,6696,73819,102332
8.01,801,14806,1,0,0,0,835.34241,904.23584,1615.14282,1744.07959,-0.04358,-0.06275,0.9971,-2.135,0.49,-0.175,6696,73819,102332
8.02,802,14807,1,0,0,0,835.34241,904.23584,1615.29541,1744.0033,-0.04505,-0.06214,0.99942,-2.065,0.543,0.07,6696,73816,102331
8.03,803,14808,1,0,0,0,835.34241,904.23584,1615.448,1744.07959,-0.04443,-0.06116,0.99734,-1.838,0.473,0.0,6696,73816,102331
8.04,804,14809,1,0,0,0,835.34241,904.23584,1615.52429,1744.15588,-0.04382,-0.06055,0.99698,-1.96,0.508,-0.123,6697,73816,102329
8.05,805,14810,1,0,0,0,835.4187,904.23584,1615.448,1744.07959,-0.04431,-0.06165,0.99759,-1.82,0.56,-0.088,6697,73816,102329
8.06,806,14811,1,0,0,0,835.4187,904.23584,1615.82947,1744.38477,-0.04419,-0.06189,0.99649,-1.82,0.525,-0.053,6696,73819,102335
8.07,807,14812,1,0,0,0,835.4187,904.23584,1615.3717,1744.30847,-0.04505,-0.06165,0.99747,-1.768,0.578,-0.193,6696,73819,102335
8.08,808,14813,1,0,0,0,835.4187,904.23584,1615.448,1744.15588,-0.04578,-0.06214,0.99844,-1.925,0.49,-0.298,6698,73818,102336
8.09,809,14814,1,0,0,0,835.4187,904.23584,1616.05835,1744.46106,-0.04602,-0.06177,0.99857,-1.96,0.473,-0.193,6698,73818,102336
8.1,810,14815,1,0,0,0,835.4187,903.85437,1615.448,1744.38477,-0.04407,-0.06153,0.99759,-1.855,0.403,-0.088,6699,73821,102337
8.11,811,14816,1,0,0,0,835.4187,903.85437,1614.99023,1744.23218,-0.04395,-0.06201,0.99661,-1.75,0.403,-0.193,6699,73821,102337
8.12,812,14817,1,0,0,0,835.4187,903.85437,1615.60059,1744.30847,-0.04639,-0.06006,0.99869,-1.68,0.455,-0.263,6699,73823,102339
8.13,813,14818,1,0,0,0,835.4187,903.85437,1615.14282,1744.07959,-0.04505,-0.05957,0.99796,-1.943,0.525,-0.333,6699,73823,102339
8.14,814,14819,1,0,0,0,835.4187,903.85437,1615.21912,1744.07959,-0.04358,-0.0614,0.99661,-1.803,0.578,-0.333,6699,73820,102344
8.15,815,14820,1,0,0,0,835.4187,903.85437,1615.52429,1744.07959,-0.04419,-0.0614,0.99808,-1.768,0.595,-0.193,6699,73820,102344
8.16,816,14821,1,0,0,0,835.4187,903.85437,1615.14282,1744.07959,-0.04285,-0.05982,0.9982,-1.785,0.543,-0.315,6700,73820,102351
8.17,817,14822,1,0,0,0,835.4187,903.85437,1615.14282,1744.07959,-0.04346,-0.05994,0.99783,-1.943,0.543,-0.298,6700,73820,102351
8.18,818,14823,1,0,0,0,835.4187,903.85437,1615.29541,1744.30847,-0.04273,-0.06165,0.99673,-1.908,0.473,-0.473,6701,73823,102358
8.19,819,14824,1,0,0,0,835.4187,903.85437,1615.21912,1744.15588,-0.04199,-0.05994,0.99722,-1.873,0.613,-0.385,6701,73823,102358
8.2,820,14825,1,0,0,0,835.4187,903.93066,1615.3717,1744.0033,-0.04199,-0.0603,0.99771,-2.065,0.56,-0.333,6700,73826,102359
8.21,821,14826,1,0,0,0,835.4187,903.93066,1615.75317,1744.15588,-0.04443,-0.06104,0.99759,-1.838,0.578,-0.228,6700,73826,102359
8.22,822,14827,1,0,0,0,835.4187,903.93066,1615.29541,1744.07959,-0.04614,-0.06055,0.99759,-1.768,0.508,-0.193,6704,73825,102363
8.23,823,14828,1,0,0,0,835.4187,903.93066,1615.3717,1744.15588,-0.04456,-0.06153,0.99686,-1.785,0.49,-0.123,6704,73825,102363
8.24,824,14829,1,0,0,0,835.4187,903.93066,1616.05835,1744.23218,-0.04382,-0.06226,0.99698,-2.188,0.613,-0.403,6701,73825,102365
8.25,825,14830,1,0,0,0,835.495,903.93066,1615.448,1744.30847,-0.04553,-0.06275,0.99991,-2.17,0.508,-0.368,6701,73825,102365
8.26,826,14831,1,0,0,0,835.495,903.93066,1615.29541,1744.0033,-0.04566,-0.06421,0.9993,-2.013,0.578,-0.368,6703,73830,102370
8.27,827,14832,1,0,0,0,835.495,903.93066,1615.67688,1744.15588,-0.04688,-0.06311,0.99881,-1.908,0.49,-0.35,6703,73830,102370
8.28,828,14833,1,0,0,0,835.495,903.93066,1615.21912,1744.07959,-0.04492,-0.06177,0.99698,-1.75,0.595,-0.333,6704,73836,102379
8.29,829,14834,1,0,0,0,835.495,903.93066,1615.21912,1744.0033,-0.04382,-0.06116,0.99673,-1.873,0.595,-0.42,6704,73836,102379
8.3,830,14835,1,0,0,0,835.495,904.15955,1615.3717,1744.07959,-0.04346,-0.05811,0.99771,-1.855,0.543,-0.525,6706,73836,102380
8.31,831,14836,1,0,0,0,835.495,904.15955,1614.99023,1744.07959,-0.04309,-0.0575,0.99844,-1.925,0.543,-0.543,6706,73836,102380
8.32,832,14837,1,0,0,0,835.495,904.15955,1615.29541,1744.15588,-0.04199,-0.05713,0.99918,-1.96,0.543,-0.263,6708,73836,102383
8.33,833,14838,1,0,0,0,835.495,904.15955,1615.21912,1744.07959,-0.04151,-0.05811,0.99783,-2.205,0.578,-0.263,6708,73836,102383
8.34,834,14839,1,0,0,0,835.495,904.15955,1615.14282,1744.07959,-0.04529,-0.06323,0.99759,-2.258,0.56,-0.193,6706,73831,102386
8.35,835,14840,1,0,0,0,835.18982,904.15955,1615.29541,1743.85071,-0.04785,-0.06421,0.99991,-2.31,0.613,-0.245,6706,73831,102386
8.36,836,14841,1,0,0,0,835.18982,904.15955,1615.75317,1744.23218,-0.04712,-0.06384,1.0004,-2.083,0.595,-0.175,6708,73839,102395
8.37,837,14842,1,0,0,0,835.18982,904.15955,1615.21912,1744.0033,-0.04651,-0.06397,0.99991,-1.488,0.525,-0.14,6708,73839,102395
8.38,838,14843,1,0,0,0,835.18982,904.15955,1615.21912,1744.0033,-0.04627,-0.06323,0.99722,-1.33,0.543,-0.21,6714,73837,102390
8.39,839,14844,1,0,0,0,835.18982,904.15955,1615.75317,1744.15588,-0.04407,-0.06201,0.99539,-1.68,0.525,-0.578,6714,73837,102390
8.4,840,14845,1,0,0,0,835.18982,903.85437,1615.3717,1744.07959,-0.04492,-0.06165,0.99759,-1.855,0.35,-0.403,6713,73834,102374
8.41,841,14846,1,0,0,0,835.18982,903.85437,1614.99023,1744.0033,-0.04468,-0.06177,0.99966,-1.96,0.525,-0.525,6713,73834,102374
8.42,842,14847,1,0,0,0,835.18982,903.85437,1615.448,1744.07959,-0.04334,-0.06323,0.99918,-1.89,0.525,-0.508,6707,73830,102362
8.43,843,14848,1,0,0,0,835.18982,903.85437,1615.21912,1744.07959,-0.04248,-0.06104,0.99954,-1.698,0.473,-0.385,6707,73830,102362
8.44,844,14849,1,0,0,0,835.18982,903.85437,1615.21912,1744.07959,-0.04443,-0.0603,0.99637,-1.768,0.368,-0.385,6705,73830,102359
8.45,845,14850,1,0,0,0,835.495,903.85437,1615.448,1744.0033,-0.04358,-0.06079,0.99612,-1.733,0.403,-0.28,6705,73830,102359
8.46,846,14851,1,0,0,0,835.495,903.85437,1614.99023,1743.85071,-0.04614,-0.06018,0.99771,-1.855,0.525,-0.28,6703,73832,102356
8.47,847,14852,1,0,0,0,835.495,903.85437,1615.06653,1743.77441,-0.04529,-0.06055,0.99722,-1.838,0.543,-0.385,6703,73832,102356
8.48,848,14853,1,0,0,0,835.495,903.85437,1615.14282,1743.927,-0.04566,-0.0614,0.99734,-1.715,0.525,-0.245,6701,73830,102353
8.49,849,14854,1,0,0,0,835.495,903.85437,1615.21912,1743.927,-0.04456,-0.0625,0.99734,-1.75,0.403,-0.438,6701,73830,102353
8.5,850,14855,1,0,0,0,835.495,903.93066,1615.14282,1743.85071,-0.04431,-0.06299,0.99771,-1.75,0.543,-0.508,6695,73830,102353
8.51,851,14856,1,0,0,0,835.495,903.93066,1615.60059,1743.85071,-0.04431,-0.06079,0.99881,-1.593,0.455,-0.28,6695,73830,102353
8.52,852,14857,1,0,0,0,835.495,903.93066,1615.21912,1743.85071,-0.04468,-0.05957,0.99893,-1.715,0.455,-0.438,6694,73829,102351
8.53,853,14858,1,0,0,0,835.495,903.93066,1615.29541,1743.77441,-0.0448,-0.06006,0.99747,-1.733,0.473,-0.455,6694,73829,102351
8.54,854,14859,1,0,0,0,835.495,903.93066,1615.90576,1744.07959,-0.04395,-0.06128,0.99771,-1.715,0.525,-0.42,6692,73829,102342
8.55,855,14860,1,0,0,0,835.4187,903.93066,1615.29541,1744.15588,-0.04346,-0.06238,0.99918,-1.89,0.42,-0.403,6692,73829,102342
8.56,856,14861,1,0,0,0,835.4187,903.93066,1615.21912,1743.927,-0.04443,-0.0625,1.00003,-1.698,0.455,-0.438,6690,73830,102342
8.57,857,14862,1,0,0,0,835.4187,903.93066,1615.75317,1744.07959,-0.04407,-0.06275,0.99649,-1.663,0.56,-0.525,6690,73830,102342
8.58,858,14863,1,0,0,0,835.4187,903.93066,1615.21912,1744.0033,-0.04468,-0.06116,0.99551,-1.733,0.595,-0.665,6689,73828,102341
8.59,859,14864,1,0,0,0,835.4187,903.93066,1615.21912,1744.0033,-0.04309,-0.06043,0.99368,-1.698,0.525,-0.735,6689,73828,102341
8.6,860,14865,1,0,0,0,835.4187,904.08325,1615.3717,1744.0033,-0.04334,-0.05921,0.99832,-1.908,0.368,-0.455,6683,73830,102342
8.61,861,14866,1,0,0,0,835.4187,904.08325,1614.83765,1744.0033,-0.04492,-0.05969,0.99881,-2.048,0.49,-0.35,6683,73830,102342
8.62,862,14867,1,0,0,0,835.4187,904.08325,1615.14282,1744.0033,-0.0459,-0.06189,0.99905,-1.978,0.473,-0.28,6684,73825,102340
8.63,863,14868,1,0,0,0,835.4187,904.08325,1615.21912,1743.927,-0.04651,-0.06177,0.99991,-1.908,0.455,-0.403,6684,73825,102340
8.64,864,14869,1,0,0,0,835.4187,904.08325,1614.99023,1744.0033,-0.047,-0.05835,1.0015,-1.488,0.298,-0.368,6682,73828,102341
8.65,865,14870,1,0,0,0,835.18982,904.08325,1615.29541,1743.927,-0.03906,-0.05957,0.9921,-1.75,0.35,-0.245,6682,73828,102341
8.66,866,14871,1,0,0,0,835.18982,904.08325,1615.06653,1744.07959,-0.0398,-0.06262,0.99344,-2.135,0.385,-0.315,6680,73824,102337
8.67,867,14872,1,0,0,0,835.18982,904.08325,1614.99023,1743.927,-0.04553,-0.06568,1.00027,-2.275,0.613,-0.28,6680,73824,102337
8.68,868,14873,1,0,0,0,835.18982,904.08325,1615.14282,1743.927,-0.04639,-0.06458,1.00015,-1.89,0.578,-0.263,6679,73820,102337
8.69,869,14874,1,0,0,0,835.18982,904.08325,1615.75317,1744.07959,-0.04382,-0.05908,1.00015,-1.68,0.508,-0.28,6679,73820,102337
8.7,870,14875,1,0,0,0,835.18982,903.77808,1615.29541,1744.15588,-0.04273,-0.05969,0.99539,-1.978,0.578,-0.21,6678,73820,102340
8.71,871,14876,1,0,0,0,835.18982,903.77808,1614.99023,1743.85071,-0.04321,-0.06091,0.99661,-2.083,0.473,-0.28,6678,73820,102340
8.72,872,14877,1,0,0,0,835.18982,903.77808,1615.29541,1744.0033,-0.04517,-0.05982,0.99954,-2.17,0.455,-0.368,6676,73823,102334
8.73,873,14878,1,0,0,0,835.18982,903.77808,1615.21912,1743.927,-0.04492,-0.06006,0.9993,-2.048,0.508,-0.21,6676,73823,102334
8.74,874,14879,1,0,0,0,835.18982,903.77808,1615.21912,1744.0033,-0.04456,-0.06055,0.9993,-1.855,0.455,-0.018,6676,73820,102334
8.75,875,14880,1,0,0,0,835.495,903.77808,1615.448,1744.0033,-0.04236,-0.06238,0.99612,-2.048,0.578,-0.228,6676,73820,102334
8.76,876,14881,1,0,0,0,835.495,903.77808,1615.14282,1743.927,-0.04456,-0.06214,0.99686,-1.82,0.49,-0.21,6674,73822,102337
8.77,877,14882,1,0,0,0,835.495,903.77808,1615.14282,1743.85071,-0.04358,-0.06238,0.99722,-1.908,0.543,-0.245,6674,73822,102337
8.78,878,14883,1,0,0,0,835.495,903.77808,1615.3717,1744.0033,-0.04492,-0.06165,0.99783,-1.768,0.508,-0.193,6673,73825,102339
8.79,879,14884,1,0,0,0,835.495,903.77808,1615.06653,1743.927,-0.0448,-0.06238,0.9982,-1.733,0.42,-0.088,6673,73825,102339
8.8,880,14885,1,0,0,0,835.495,904.00696,1615.06653,1743.85071,-0.04407,-0.06384,0.99734,-1.68,0.438,-0.228,6673,73825,102340
8.81,881,14886,1,0,0,0,835.495,904.00696,1614.99023,1743.927,-0.04456,-0.06238,0.99759,-1.75,0.525,-0.245,6673,73825,102340
8.82,882,14887,1,0,0,0,835.495,904.00696,1615.06653,1743.85071,-0.04431,-0.06177,0.99637,-1.89,0.438,-0.438,6673,73822,102341
8.83,883,14888,1,0,0,0,835.495,904.00696,1615.06653,1743.77441,-0.0437,-0.06177,0.99771,-1.75,0.403,-0.28,6673,73822,102341
8.84,884,14889,1,0,0,0,835.495,904.00696,1615.82947,1744.0033,-0.04492,-0.06067,0.99857,-1.75,0.42,-0.245,6675,73824,102341
8.85,885,14890,1,0,0,0,835.18982,904.00696,1615.14282,1744.0033,-0.04419,-0.05957,0.99869,-1.628,0.473,-0.14,6675,73824,102341
8.86,886,14891,1,0,0,0,835.18982,904.00696,1614.91394,1743.85071,-0.0437,-0.06043,0.99734,-1.82,0.473,-0.28,6671,73824,102345
8.87,887,14892,1,0,0,0,835.18982,904.00696,1615.3717,1744.0033,-0.04358,-0.06128,0.99722,-1.768,0.473,-0.35,6671,73824,102345
8.88,888,14893,1,0,0,0,835.18982,904.00696,1615.06653,1743.927,-0.04236,-0.06201,0.99612,-1.768,0.508,-0.228,6673,73825,102347
8.89,889,14894,1,0,0,0,835.18982,904.00696,1614.99023,1743.85071,-0.04431,-0.06189,0.99808,-1.82,0.525,-0.28,6673,73825,102347
8.9,890,14895,1,0,0,0,835.18982,904.08325,1615.29541,1743.77441,-0.04541,-0.06287,0.99942,-1.785,0.525,-0.28,6678,73829,102350
8.91,891,14896,1,0,0,0,835.18982,904.08325,1614.76135,1743.927,-0.0437,-0.0647,0.99783,-1.68,0.543,-0.333,6678,73829,102350
8.92,892,14897,1,0,0,0,835.18982,904.08325,1614.99023,1744.0033,-0.04443,-0.06446,0.99747,-1.698,0.438,-0.508,6674,73829,102351
8.93,893,14898,1,0,0,0,835.18982,904.08325,1615.14282,1744.0033,-0.04334,-0.06348,0.99661,-1.435,0.35,-0.193,6674,73829,102351
8.94,894,14899,1,0,0,0,835.18982,904.08325,1614.91394,1743.85071,-0.04517,-0.0625,0.99796,-1.19,0.333,-0.245,6676,73827,102354
8.95,895,14900,1,0,0,0,835.11353,904.08325,1615.06653,1743.77441,-0.04346,-0.0614,0.99637,-1.278,0.368,-0.42,6676,73827,102354
8.96,896,14901,1,0,0,0,835.11353,904.08325,1614.83765,1744.07959,-0.04346,-0.06116,0.99527,-1.47,0.42,-0.333,6676,73832,102359
8.97,897,14902,1,0,0,0,835.11353,904.08325,1614.91394,1744.0033,-0.04456,-0.06177,0.99796,-1.593,0.42,-0.403,6676,73832,102359
8.98,898,14903,1,0,0,0,835.11353,904.08325,1614.91394,1743.927,-0.04505,-0.0614,0.99991,-1.61,0.473,-0.455,6677,73834,102358
8.99,899,14904,1,0,0,0,835.11353,904.08325,1615.448,1744.07959,-0.04505,-0.06091,0.99942,-1.488,0.508,-0.438,6677,73834,102358
9.0,900,14905,1,0,0,0,835.11353,903.85437,1614.91394,1744.07959,-0.04382,-0.06079,0.9982,-1.523,0.438,-0.298,6678,73834,102364
9.01,901,14906,1,0,0,0,835.11353,903.85437,1614.76135,1743.69812,-0.0448,-0.05994,0.99869,-1.4,0.49,-0.368,6678,73834,102364
9.02,902,14907,1,0,0,0,835.11353,903.85437,1615.29541,1743.69812,-0.04321,-0.05933,0.99722,-1.54,0.368,-0.508,6679,73839,102367
9.03,903,14908,1,0,0,0,835.11353,903.85437,1615.06653,1743.62183,-0.04334,-0.05933,0.99747,-1.54,0.368,-0.368,6679,73839,102367
9.04,904,14909,1,0,0,0,835.11353,903.85437,1614.99023,1743.62183,-0.04297,-0.05994,0.99722,-1.54,0.578,-0.42,6679,73839,102367
9.05,905,14910,1,0,0,0,835.4187,903.85437,1615.06653,1743.85071,-0.04419,-0.06018,0.99832,-1.575,0.508,-0.333,6679,73836,102374
9.06,906,14911,1,0,0,0,835.4187,903.85437,1614.83765,1743.62183,-0.04407,-0.06055,0.99869,-1.663,0.42,-0.315,6679,73836,102374
9.07,907,14912,1,0,0,0,835.4187,903.85437,1615.06653,1743.62183,-0.0426,-0.06128,0.99686,-1.61,0.473,-0.28,6680,73842,102378
9.08,908,14913,1,0,0,0,835.4187,903.85437,1615.21912,1743.69812,-0.04236,-0.05994,0.99649,-1.768,0.49,-0.245,6680,73842,102378
9.09,909,14914,1,0,0,0,835.4187,903.85437,1614.91394,1743.85071,-0.04285,-0.06079,0.99686,-1.698,0.595,-0.263,6682,73841,102371
9.1,910,14915,1,0,0,0,835.4187,903.85437,1614.99023,1743.77441,-0.04468,-0.06055,0.99771,-1.645,0.595,-0.175,6683,73843,102382
9.11,911,14916,1,0,0,0,835.4187,903.85437,1615.06653,1743.85071,-0.04456,-0.06043,0.99686,-1.645,0.525,-0.28,6683,73843,102382
9.12,912,14917,1,0,0,0,835.4187,903.85437,1614.99023,1743.77441,-0.04334,-0.06177,0.99747,-1.82,0.42,-0.385,6683,73843,102382
9.13,913,14918,1,0,0,0,835.4187,903.85437,1614.99023,1743.69812,-0.04505,-0.0625,0.99832,-1.82,0.438,-0.403,6683,73845,102394
9.14,914,14919,1,0,0,0,835.4187,903.85437,1614.99023,1743.77441,-0.04419,-0.06275,0.99759,-1.698,0.455,-0.333,6683,73845,102394
9.15,915,14920,1,0,0,0,835.11353,903.85437,1615.14282,1743.927,-0.04468,-0.06189,0.99759,-1.698,0.455,-0.28,6686,73851,102396
9.16,916,14921,1,0,0,0,835.11353,903.85437,1614.60876,1743.62183,-0.04443,-0.0614,0.99759,-1.698,0.49,-0.385,6686,73851,102396
9.17,917,14922,1,0,0,0,835.11353,903.85437,1615.14282,1743.69812,-0.04492,-0.0614,0.99796,-1.698,0.49,-0.263,6686,73852,102400
9.18,918,14923,1,0,0,0,835.11353,903.85437,1614.83765,1743.69812,-0.04517,-0.06189,0.99734,-1.575,0.42,-0.333,6686,73852,102400
9.19,919,14924,1,0,0,0,835.11353,903.85437,1614.83765,1743.69812,-0.04456,-0.06091,0.99661,-1.82,0.403,-0.578,6689,73855,102407
9.2,920,14925,1,0,0,0,835.11353,904.00696,1615.21912,1743.69812,-0.04382,-0.06201,0.99625,-1.715,0.525,-0.56,6689,73857,102412
9.21,921,14926,1,0,0,0,835.11353,904.00696,1614.53247,1743.69812,-0.04358,-0.06104,0.99673,-1.75,0.56,-0.56,6689,73857,102412
9.22,922,14927,1,0,0,0,835.11353,904.00696,1614.83765,1743.69812,-0.04334,-0.06201,0.9971,-1.698,0.543,-0.665,6689,73857,102412
9.23,923,14928,1,0,0,0,835.11353,904.00696,1615.52429,1743.69812,-0.04443,-0.0614,0.99905,-1.68,0.49,-0.49,6687,73854,102411
9.24,924,14929,1,0,0,0,835.11353,904.00696,1614.99023,1743.62183,-0.04407,-0.05945,0.99832,-1.593,0.438,-0.56,6687,73854,102411
9.25,925,14930,1,0,0,0,835.18982,904.00696,1615.06653,1743.69812,-0.04456,-0.05921,0.99893,-1.628,0.42,-0.49,6692,73858,102420
9.26,926,14931,1,0,0,0,835.18982,904.00696,1615.14282,1743.69812,-0.04321,-0.05982,0.99625,-1.715,0.543,-0.508,6692,73858,102420
9.27,927,14932,1,0,0,0,835.18982,904.00696,1615.06653,1743.69812,-0.0437,-0.05994,0.99673,-1.82,0.385,-0.525,6695,73863,102429
9.28,928,14933,1,0,0,0,835.18982,904.00696,1614.99023,1743.54553,-0.04248,-0.06091,0.99771,-1.768,0.438,-0.508,6695,73863,102429
9.29,929,14934,1,0,0,0,835.18982,904.00696,1615.21912,1743.77441,-0.04456,-0.06104,0.9971,-1.768,0.473,-0.228,6694,73864,102431
9.3,930,14935,1,0,0,0,835.18982,903.70178,1614.99023,1744.15588,-0.04382,-0.05969,0.99673,-1.68,0.56,-0.315,6694,73866,102432
9.31,931,14936,1,0,0,0,835.18982,903.70178,1614.91394,1743.54553,-0.04358,-0.05933,0.99954,-1.733,0.49,-0.228,6694,73866,102432
9.32,932,14937,1,0,0,0,835.18982,903.70178,1615.3717,1743.69812,-0.04395,-0.06091,0.99857,-1.663,0.473,-0.455,6694,73866,102432
9.33,933,14938,1,0,0,0,835.18982,903.70178,1614.99023,1743.54553,-0.04419,-0.06018,0.99637,-1.61,0.578,-0.368,6697,73865,102438
9.34,934,14939,1,0,0,0,835.18982,903.70178,1614.99023,1743.54553,-0.04517,-0.06018,0.99661,-1.68,0.578,-0.438,6697,73865,102438
9.35,935,14940,1,0,0,0,835.4187,903.70178,1615.21912,1743.54553,-0.04407,-0.0603,0.99661,-1.785,0.578,-0.49,6700,73872,102444
9.36,936,14941,1,0,0,0,835.4187,903.70178,1614.83765,1743.62183,-0.04578,-0.05945,0.99539,-1.803,0.508,-0.455,6700,73872,102444
9.37,937,14942,1,0,0,0,835.4187,903.70178,1614.91394,1743.62183,-0.04358,-0.05908,0.99515,-1.855,0.438,-0.403,6700,73871,102448
9.38,938,14943,1,0,0,0,835.4187,903.70178,1615.60059,1743.927,-0.04236,-0.05664,1.00003,-1.575,0.543,-0.333,6700,73871,102448
9.39,939,14944,1,0,0,0,835.4187,903.70178,1614.99023,1743.62183,-0.04236,-0.05554,0.99857,-1.733,0.595,-0.193,6704,73871,102452
9.4,940,14945,1,0,0,0,835.4187,903.70178,1615.06653,1743.39294,-0.04224,-0.05811,0.99808,-1.96,0.543,-0.228,6705,73875,102459
9.41,941,14946,1,0,0,0,835.4187,903.70178,1614.99023,1743.69812,-0.04346,-0.06165,0.99698,-2.328,0.613,-0.28,6705,73875,102459
9.42,942,14947,1,0,0,0,835.4187,903.70178,1615.06653,1743.62183,-0.04688,-0.06482,0.99832,-2.363,0.595,-0.07,6705,73875,102459
