Time(s),SampleIndex,Seq,ValidFlag,InterpFlag,GapLen,MissingBefore,Uc1(mV),Uc2(mV),Ut1(mV),Ut2(mV),AccX(g),AccY(g),AccZ(g),GyroX(dps),GyroY(dps),GyroZ(dps),PPG_Green,PPG_Red,PPG_IR
0.0,0,6844,1,0,0,0,847.62573,894.6228,1638.33618,1725.38757,-0.02942,-0.03919,1.00003,-1.768,0.718,-0.893,6198,68323,102774
0.01,1,6845,1,0,0,0,847.62573,894.6228,1638.1073,1725.99792,-0.02942,-0.04126,0.99844,-1.715,0.648,-0.648,6198,68323,102774
0.02,2,6846,1,0,0,0,847.62573,894.6228,1638.25989,1725.46387,-0.02979,-0.0426,0.99734,-1.698,0.525,-0.56,6199,68321,102772
0.03,3,6847,1,0,0,0,847.62573,894.6228,1638.25989,1725.69275,-0.03027,-0.04175,0.99954,-1.803,0.613,-0.7,6199,68321,102772
0.04,4,6848,1,0,0,0,847.62573,894.6228,1638.33618,1725.46387,-0.03076,-0.04199,0.99991,-1.768,0.7,-0.823,6198,68320,102766
0.05,5,6849,1,0,0,0,847.62573,894.31763,1638.41248,1725.61646,-0.0315,-0.04382,1.00027,-1.54,0.613,-0.735,6198,68320,102766
0.06,6,6850,1,0,0,0,847.62573,894.31763,1638.33618,1725.54016,-0.03113,-0.04419,0.99722,-1.47,0.455,-0.56,6198,68318,102761
0.07,7,6851,1,0,0,0,847.62573,894.31763,1638.33618,1725.84534,-0.03101,-0.04236,0.99796,-1.488,0.525,-0.578,6198,68318,102761
0.08,8,6852,1,0,0,0,847.62573,894.31763,1638.33618,1725.84534,-0.0332,-0.03772,1.00064,-1.225,0.508,-0.56,6192,68317,102757
0.09,9,6853,1,0,0,0,847.62573,894.31763,1638.56506,1725.76904,-0.03284,-0.03809,1.00003,-1.26,0.56,-0.683,6192,68317,102757
0.1,10,6854,1,0,0,0,847.62573,894.31763,1638.79395,1725.76904,-0.03394,-0.03931,0.99979,-1.295,0.683,-0.613,6193,68317,102756
0.11,11,6855,1,0,0,0,847.62573,894.31763,1638.03101,1725.92163,-0.03357,-0.04285,0.99869,-1.365,0.665,-0.665,6193,68317,102756
0.12,12,6856,1,0,0,0,847.62573,894.31763,1637.72583,1725.46387,-0.03345,-0.04382,0.99954,-1.348,0.595,-0.718,6194,68317,102749
0.13,13,6857,1,0,0,0,847.62573,894.31763,1638.25989,1725.23499,-0.03223,-0.04346,1.00027,-1.033,0.543,-0.823,6194,68317,102749
0.14,14,6858,1,0,0,0,847.62573,894.31763,1638.33618,1725.31128,-0.02954,-0.04224,1.00015,-1.068,0.525,-1.033,6191,68315,102749
0.15,15,6859,1,0,0,0,847.62573,894.47021,1638.18359,1725.38757,-0.02795,-0.03955,1.00003,-0.788,0.42,-0.893,6191,68315,102749
0.16,16,6860,1,0,0,0,847.62573,894.47021,1638.25989,1725.23499,-0.02673,-0.03699,0.99979,-0.63,0.368,-0.963,6191,68315,102749
0.17,17,6861,1,0,0,0,847.62573,894.47021,1638.33618,1725.23499,-0.02588,-0.03235,0.99905,-0.63,0.368,-1.015,6191,68312,102749
0.18,18,6862,1,0,0,0,847.62573,894.47021,1638.33618,1725.38757,-0.02454,-0.02954,0.99759,-0.648,0.333,-0.595,6191,68312,102749
0.19,19,6863,1,0,0,0,847.62573,894.47021,1638.33618,1725.31128,-0.02271,-0.02771,0.99503,-0.665,0.403,-0.333,6191,68309,102738
0.2,20,6864,1,0,0,0,847.62573,894.47021,1638.33618,1725.76904,-0.02258,-0.02332,0.99588,-0.998,0.42,0.105,6189,68310,102739
0.21,21,6865,1,0,0,0,847.62573,894.47021,1638.18359,1725.84534,-0.02295,-0.02222,0.99759,-1.558,0.508,0.105,6189,68310,102739
0.22,22,6866,1,0,0,0,847.62573,894.47021,1638.33618,1725.46387,-0.0221,-0.02173,0.99991,-2.153,0.578,0.403,6189,68310,102739
0.23,23,6867,1,0,0,0,847.62573,894.47021,1638.41248,1725.23499,-0.02014,-0.02869,0.99857,-3.045,0.56,1.033,6191,68300,102730
0.24,24,6868,1,0,0,0,847.62573,894.47021,1638.48877,1725.92163,-0.02124,-0.03308,0.99844,-3.255,0.683,1.278,6191,68300,102730
0.25,25,6869,1,0,0,0,847.62573,894.47021,1638.18359,1726.07422,-0.02234,-0.0365,0.99979,-3.518,0.7,1.085,6190,68307,102740
0.26,26,6870,1,0,0,0,847.62573,894.47021,1637.49695,1725.76904,-0.02368,-0.03833,0.99966,-3.64,0.77,1.05,6190,68307,102740
0.27,27,6871,1,0,0,0,847.62573,894.47021,1637.64954,1725.38757,-0.02539,-0.04028,0.99918,-3.658,0.84,0.963,6191,68306,102739
0.28,28,6872,1,0,0,0,847.62573,894.47021,1637.72583,1725.84534,-0.02637,-0.0426,0.99808,-3.588,0.91,1.05,6191,68306,102739
0.29,29,6873,1,0,0,0,847.62573,894.47021,1637.80212,1726.07422,-0.0304,-0.04724,1.00076,-3.483,0.875,0.963,6192,68308,102739
0.3,30,6874,1,0,0,0,847.32056,894.47021,1637.87842,1725.76904,-0.03406,-0.04846,1.00333,-3.413,0.928,0.963,6192,68308,102740
0.31,31,6875,1,0,0,0,847.32056,894.47021,1637.64954,1725.84534,-0.03552,-0.05066,1.00272,-3.203,0.84,0.578,6192,68308,102740
0.32,32,6876,1,0,0,0,847.32056,894.47021,1637.64954,1725.38757,-0.03674,-0.05103,1.00259,-2.783,0.753,0.42,6192,68308,102740
0.33,33,6877,1,0,0,0,847.32056,894.47021,1638.1073,1725.84534,-0.03406,-0.04993,0.99783,-2.45,0.665,0.035,6193,68312,102750
0.34,34,6878,1,0,0,0,847.32056,894.47021,1638.1073,1725.31128,-0.03381,-0.04602,0.99747,-1.68,0.473,-0.595,6193,68312,102750
0.35,35,6879,1,0,0,0,847.32056,894.6228,1637.72583,1725.38757,-0.03577,-0.04248,1.0004,-1.54,0.595,-0.683,6196,68311,102756
0.36,36,6880,1,0,0,0,847.32056,894.6228,1637.64954,1725.54016,-0.03589,-0.04016,1.00174,-1.26,0.543,-0.788,6196,68311,102756
0.37,37,6881,1,0,0,0,847.32056,894.6228,1637.87842,1725.31128,-0.0343,-0.03955,1.00137,-1.33,0.525,-1.085,6197,68309,102750
0.38,38,6882,1,0,0,0,847.32056,894.6228,1637.80212,1725.92163,-0.03284,-0.04151,1.00113,-1.278,0.56,-1.05,6197,68309,102750
0.39,39,6883,1,0,0,0,847.32056,894.6228,1637.87842,1725.99792,-0.03125,-0.03797,0.99796,-0.91,0.368,-1.12,6197,68307,102752
0.4,40,6884,1,0,0,0,847.32056,894.6228,1638.03101,1725.31128,-0.02649,-0.0365,0.99332,-0.84,0.35,-1.103,6196,68306,102751
0.41,41,6885,1,0,0,0,847.32056,894.6228,1637.64954,1725.99792,-0.02478,-0.03516,0.99344,-0.945,0.438,-1.033,6196,68306,102751
0.42,42,6886,1,0,0,0,847.32056,894.6228,1637.87842,1725.23499,-0.02649,-0.03613,0.99637,-1.278,0.525,-1.208,6196,68306,102751
0.43,43,6887,1,0,0,0,847.32056,894.6228,1637.95471,1725.31128,-0.03015,-0.03858,1.00198,-1.54,0.7,-1.225,6199,68306,102752
0.44,44,6888,1,0,0,0,847.32056,894.6228,1637.72583,1725.23499,-0.03162,-0.04138,1.00125,-1.26,0.508,-1.453,6199,68306,102752
0.45,45,6889,1,0,0,0,847.32056,894.39392,1637.95471,1725.23499,-0.02966,-0.0376,0.99954,-0.753,0.508,-1.418,6200,68311,102747
0.46,46,6890,1,0,0,0,847.32056,894.39392,1637.49695,1725.23499,-0.02832,-0.03613,0.99771,-0.77,0.438,-1.435,6200,68311,102747
0.47,47,6891,1,0,0,0,847.32056,894.39392,1637.80212,1725.31128,-0.0293,-0.03491,0.99661,-1.05,0.508,-1.505,6202,68307,102747
0.48,48,6892,1,0,0,0,847.32056,894.39392,1637.72583,1725.38757,-0.03052,-0.03455,0.99722,-1.348,0.56,-1.645,6202,68307,102747
0.49,49,6893,1,0,0,0,847.32056,894.39392,1637.80212,1726.3031,-0.02869,-0.03467,0.99832,-1.348,0.525,-1.418,6202,68306,102747
0.5,50,6894,1,0,0,0,847.32056,894.39392,1637.95471,1725.69275,-0.02612,-0.03003,0.99722,-1.348,0.578,-1.173,6203,68307,102749
0.51,51,6895,1,0,0,0,847.32056,894.39392,1637.64954,1726.07422,-0.02698,-0.02673,0.99869,-1.593,0.56,-1.26,6203,68307,102749
0.52,52,6896,1,0,0,0,847.32056,894.39392,1637.80212,1725.23499,-0.02564,-0.026,0.99771,-1.873,0.7,-1.435,6203,68307,102749
0.53,53,6897,1,0,0,0,847.32056,894.39392,1638.18359,1725.99792,-0.02539,-0.02417,0.99881,-1.925,0.7,-1.365,6206,68306,102745
0.54,54,6898,1,0,0,0,847.32056,894.39392,1638.33618,1725.99792,-0.02356,-0.026,0.99905,-2.205,0.683,-1.138,6206,68306,102745
0.55,55,6899,1,0,0,0,847.32056,894.6991,1638.56506,1725.54016,-0.02393,-0.03137,1.00003,-2.713,0.823,-0.858,6208,68305,102748
0.56,56,6900,1,0,0,0,847.32056,894.6991,1638.03101,1725.76904,-0.02368,-0.02942,1.00235,-2.59,0.683,-0.648,6208,68305,102748
0.57,57,6901,1,0,0,0,847.32056,894.6991,1638.18359,1725.31128,-0.021,-0.02881,0.99857,-2.503,0.525,-0.665,6207,68307,102749
0.58,58,6902,1,0,0,0,847.32056,894.6991,1638.33618,1725.76904,-0.02002,-0.02588,0.99734,-2.503,0.63,-0.385,6207,68307,102749
0.59,59,6903,1,0,0,0,847.32056,894.6991,1638.18359,1725.61646,-0.02002,-0.02332,0.99661,-2.853,0.788,-0.088,6210,68308,102758
0.6,60,6904,1,0,0,0,847.54944,894.6991,1638.18359,1725.23499,-0.02161,-0.0249,0.9971,-3.675,0.91,0.175,6210,68308,102758
0.61,61,6905,1,0,0,0,847.54944,894.6991,1638.18359,1725.54016,-0.02222,-0.02515,0.99942,-3.955,0.91,0.245,6213,68311,102759
0.62,62,6906,1,0,0,0,847.54944,894.6991,1638.03101,1725.31128,-0.02197,-0.02979,1.0015,-4.34,1.05,0.49,6213,68311,102759
0.63,63,6907,1,0,0,0,847.54944,894.6991,1638.18359,1725.38757,-0.02454,-0.03552,1.00174,-4.813,1.103,0.543,6209,68313,102762
0.64,64,6908,1,0,0,0,847.54944,894.6991,1638.18359,1725.69275,-0.02661,-0.0398,1.0032,-4.9,1.173,0.508,6209,68313,102762
0.65,65,6909,1,0,0,0,847.54944,894.39392,1638.03101,1725.23499,-0.02808,-0.04297,0.9982,-4.463,1.033,0.595,6211,68311,102768
0.66,66,6910,1,0,0,0,847.54944,894.39392,1637.95471,1725.0061,-0.02808,-0.03967,0.99625,-4.008,0.998,0.56,6211,68311,102768
0.67,67,6911,1,0,0,0,847.54944,894.39392,1638.18359,1725.15869,-0.03125,-0.03552,0.99747,-3.85,1.033,0.665,6214,68313,102768
0.68,68,6912,1,0,0,0,847.54944,894.39392,1638.1073,1725.15869,-0.03162,-0.03418,0.9971,-3.973,1.138,0.613,6214,68313,102768
0.69,69,6913,1,0,0,0,847.54944,894.39392,1638.25989,1725.15869,-0.03198,-0.03528,0.99991,-4.2,1.12,0.683,6215,68314,102770
0.7,70,6914,1,0,0,0,847.54944,894.39392,1638.94653,1725.54016,-0.03565,-0.04321,1.00198,-4.62,1.225,0.263,6215,68314,102770
0.71,71,6915,1,0,0,0,847.54944,894.39392,1638.1073,1725.46387,-0.03735,-0.04883,1.00211,-4.673,1.278,0.035,6218,68316,102770
0.72,72,6916,1,0,0,0,847.54944,894.39392,1638.25989,1725.31128,-0.04041,-0.05103,1.00198,-4.375,1.12,-0.245,6218,68316,102770
0.73,73,6917,1,0,0,0,847.54944,894.39392,1638.1073,1725.69275,-0.03931,-0.05298,0.99954,-3.868,0.928,-0.175,6217,68314,102766
0.74,74,6918,1,0,0,0,847.54944,894.39392,1637.95471,1725.38757,-0.03906,-0.05213,0.9982,-3.308,0.875,-0.333,6217,68314,102766
0.75,75,6919,1,0,0,0,847.54944,894.24133,1638.1073,1725.69275,-0.03723,-0.04724,0.99905,-2.415,0.91,-0.438,6218,68312,102765
0.76,76,6920,1,0,0,0,847.54944,894.24133,1637.87842,1725.84534,-0.03626,-0.04321,1.00052,-1.96,0.805,-0.63,6218,68312,102765
0.77,77,6921,1,0,0,0,847.54944,894.24133,1638.03101,1725.76904,-0.03845,-0.04028,1.00406,-1.593,0.63,-0.665,6218,68313,102770
0.78,78,6922,1,0,0,0,847.54944,894.24133,1638.1073,1725.23499,-0.03577,-0.04004,1.00137,-1.313,0.578,-0.753,6218,68313,102770
0.79,79,6923,1,0,0,0,847.54944,894.24133,1638.1073,1725.99792,-0.03076,-0.04053,1.00027,-1.295,0.525,-0.648,6219,68310,102764
0.8,80,6924,1,0,0,0,847.47314,894.24133,1638.18359,1725.84534,-0.02271,-0.03967,0.99954,-1.208,0.298,-0.753,6219,68310,102764
0.81,81,6925,1,0,0,0,847.47314,894.24133,1637.95471,1725.23499,-0.02173,-0.03906,1.00015,-1.103,0.245,-0.858,6219,68306,102745
0.82,82,6926,1,0,0,0,847.47314,894.24133,1638.1073,1725.31128,-0.02026,-0.03833,0.99942,-1.05,0.315,-1.103,6219,68306,102745
0.83,83,6927,1,0,0,0,847.47314,894.24133,1637.95471,1725.23499,-0.02002,-0.03699,0.99771,-0.98,0.403,-1.12,6213,68303,102729
0.84,84,6928,1,0,0,0,847.47314,894.24133,1638.03101,1725.99792,-0.02307,-0.0365,0.99893,-1.225,0.578,-1.033,6213,68303,102729
0.85,85,6929,1,0,0,0,847.47314,894.6228,1638.41248,1725.46387,-0.02918,-0.03455,1.00015,-1.4,0.648,-1.12,6208,68301,102716
0.86,86,6930,1,0,0,0,847.47314,894.6228,1637.80212,1725.31128,-0.02991,-0.03528,0.99808,-1.645,0.718,-1.225,6208,68301,102716
0.87,87,6931,1,0,0,0,847.47314,894.6228,1638.18359,1725.31128,-0.02771,-0.0365,0.99625,-1.925,0.648,-1.05,6200,68296,102700
0.88,88,6932,1,0,0,0,847.47314,894.6228,1638.18359,1725.92163,-0.026,-0.03662,0.99576,-1.943,0.718,-1.033,6200,68296,102700
0.89,89,6933,1,0,0,0,847.47314,894.6228,1638.1073,1725.46387,-0.02661,-0.03601,0.99625,-2.1,0.805,-1.138,6194,68291,102688
0.9,90,6934,1,0,0,0,847.54944,894.6228,1638.25989,1725.76904,-0.02832,-0.03455,1.00027,-2.31,0.963,-1.295,6194,68291,102688
0.91,91,6935,1,0,0,0,847.54944,894.6228,1638.18359,1725.15869,-0.02918,-0.03613,0.99905,-2.468,0.963,-1.12,6190,68291,102678
0.92,92,6936,1,0,0,0,847.54944,894.6228,1638.25989,1725.31128,-0.02832,-0.03772,0.99954,-2.503,0.91,-1.12,6190,68291,102678
0.93,93,6937,1,0,0,0,847.54944,894.6228,1638.25989,1725.76904,-0.0304,-0.03699,1.00235,-2.398,0.788,-1.103,6183,68290,102672
0.94,94,6938,1,0,0,0,847.54944,894.6228,1638.33618,1725.84534,-0.03101,-0.03577,1.00357,-2.433,0.875,-1.033,6183,68290,102672
0.95,95,6939,1,0,0,0,847.54944,894.31763,1638.1073,1725.0824,-0.0304,-0.03674,0.99747,-2.485,0.875,-0.945,6176,68290,102659
0.96,96,6940,1,0,0,0,847.54944,894.31763,1638.03101,1725.23499,-0.0304,-0.03674,0.99747,-2.293,0.7,-0.945,6176,68290,102659
0.97,97,6941,1,0,0,0,847.54944,894.31763,1638.41248,1725.38757,-0.02673,-0.03467,0.99551,-2.205,0.7,-0.875,6173,68284,102653
0.98,98,6942,1,0,0,0,847.54944,894.31763,1638.33618,1725.0824,-0.0282,-0.03308,0.9949,-2.415,0.735,-0.823,6173,68284,102653
0.99,99,6943,1,0,0,0,847.54944,894.31763,1638.33618,1725.0824,-0.02954,-0.03565,0.99857,-2.59,0.84,-0.893,6168,68283,102645
1.0,100,6944,1,0,0,0,847.62573,894.31763,1639.02283,1725.15869,-0.03064,-0.03821,1.00113,-2.625,0.77,-0.805,6168,68283,102645
1.01,101,6945,1,0,0,0,847.62573,894.31763,1638.25989,1725.23499,-0.03027,-0.04077,1.00186,-2.503,0.788,-0.753,6162,68279,102636
1.02,102,6946,1,0,0,0,847.62573,894.31763,1638.25989,1725.38757,-0.02722,-0.03809,1.00027,-1.873,0.613,-0.735,6162,68279,102636
1.03,103,6947,1,0,0,0,847.62573,894.31763,1638.18359,1725.92163,-0.02795,-0.0365,0.99771,-1.838,0.63,-0.788,6160,68280,102631
1.04,104,6948,1,0,0,0,847.62573,894.31763,1638.33618,1725.23499,-0.02747,-0.03491,0.99454,-2.065,0.595,-0.543,6160,68280,102631
1.05,105,6949,1,0,0,0,847.62573,894.39392,1638.33618,1725.76904,-0.02844,-0.03565,0.99673,-2.38,0.7,-0.875,6159,68279,102624
1.06,106,6950,1,0,0,0,847.62573,894.39392,1638.03101,1725.31128,-0.03137,-0.03638,1.00015,-2.17,0.683,-0.718,6159,68279,102624
1.07,107,6951,1,0,0,0,847.62573,894.39392,1638.25989,1725.23499,-0.03162,-0.03552,1.00064,-1.873,0.718,-0.718,6153,68276,102619
1.08,108,6952,1,0,0,0,847.62573,894.39392,1638.33618,1725.54016,-0.03015,-0.0365,0.99832,-1.873,0.613,-0.788,6153,68276,102619
1.09,109,6953,1,0,0,0,847.62573,894.39392,1638.25989,1725.84534,-0.03003,-0.03491,0.99832,-1.89,0.648,-0.77,6154,68275,102616
1.1,110,6954,1,0,0,0,847.62573,894.39392,1638.18359,1725.31128,-0.02747,-0.03638,0.99747,-1.855,0.595,-0.805,6154,68275,102616
1.11,111,6955,1,0,0,0,847.62573,894.39392,1638.25989,1725.76904,-0.02795,-0.03577,0.99857,-1.96,0.525,-0.805,6149,68275,102613
1.12,112,6956,1,0,0,0,847.62573,894.39392,1638.25989,1725.23499,-0.02698,-0.03577,0.99905,-2.188,0.718,-1.155,6149,68275,102613
1.13,113,6957,1,0,0,0,847.62573,894.39392,1638.25989,1725.15869,-0.02783,-0.03528,1.00052,-2.328,0.7,-0.84,6150,68272,102614
1.14,114,6958,1,0,0,0,847.62573,894.39392,1638.41248,1725.15869,-0.02857,-0.03491,1.00186,-2.31,0.823,-1.015,6150,68272,102614
1.15,115,6959,1,0,0,0,847.62573,894.24133,1638.41248,1725.23499,-0.02881,-0.03674,0.99918,-2.293,0.788,-0.98,6146,68272,102609
1.16,116,6960,1,0,0,0,847.62573,894.24133,1637.95471,1725.54016,-0.02881,-0.0365,0.99869,-2.275,0.788,-1.085,6146,68272,102609
1.17,117,6961,1,0,0,0,847.62573,894.24133,1638.25989,1725.69275,-0.0282,-0.03369,0.9982,-2.153,0.63,-0.98,6143,68272,102605
1.18,118,6962,1,0,0,0,847.62573,894.24133,1638.33618,1724.92981,-0.02893,-0.03113,0.99698,-2.1,0.665,-0.945,6143,68272,102605
1.19,119,6963,1,0,0,0,847.62573,894.24133,1638.25989,1725.54016,-0.0282,-0.02954,0.99564,-2.188,0.788,-0.928,6144,68269,102609
1.2,120,6964,1,0,0,0,847.93091,894.24133,1638.33618,1725.15869,-0.0304,-0.03015,0.99954,-2.433,0.7,-0.875,6144,68269,102609
1.21,121,6965,1,0,0,0,847.93091,894.24133,1638.25989,1725.38757,-0.02893,-0.03211,1.00027,-2.485,0.7,-0.858,6141,68272,102599
1.22,122,6966,1,0,0,0,847.93091,894.24133,1638.18359,1725.38757,-0.02686,-0.03442,0.99796,-2.573,0.805,-0.875,6141,68272,102599
1.23,123,6967,1,0,0,0,847.93091,894.24133,1638.48877,1725.15869,-0.02673,-0.0354,0.99979,-2.485,0.613,-0.525,6142,68268,102596
1.24,124,6968,1,0,0,0,847.93091,894.24133,1638.33618,1725.76904,-0.02844,-0.03479,0.99991,-2.678,0.595,-0.473,6142,68268,102596
1.25,125,6969,1,0,0,0,847.93091,894.39392,1638.33618,1725.0824,-0.02747,-0.03491,0.99808,-2.538,0.753,-0.613,6141,68268,102599
1.26,126,6970,1,0,0,0,847.93091,894.39392,1638.03101,1725.0061,-0.02783,-0.03442,0.99686,-2.695,0.805,-0.508,6141,68268,102599
1.27,127,6971,1,0,0,0,847.93091,894.39392,1638.18359,1725.61646,-0.02783,-0.0343,0.9971,-2.713,0.788,-0.578,6141,68267,102600
1.28,128,6972,1,0,0,0,847.93091,894.39392,1638.1073,1725.15869,-0.02881,-0.03296,0.99918,-2.835,1.033,-0.648,6141,68267,102600
1.29,129,6973,1,0,0,0,847.93091,894.39392,1638.25989,1725.23499,-0.02918,-0.03455,0.99979,-3.028,1.015,-0.595,6138,68266,102597
1.3,130,6974,1,0,0,0,847.47314,894.39392,1638.64136,1725.76904,-0.02979,-0.03369,1.00259,-3.133,0.963,-0.56,6138,68266,102597
1.31,131,6975,1,0,0,0,847.47314,894.39392,1637.87842,1725.23499,-0.0293,-0.03589,1.00125,-3.238,0.91,-0.595,6141,68268,102592
1.32,132,6976,1,0,0,0,847.47314,894.39392,1637.95471,1725.46387,-0.02905,-0.03662,1.00162,-3.168,0.718,-0.56,6141,68268,102592
1.33,133,6977,1,0,0,0,847.47314,894.39392,1638.1073,1725.84534,-0.02795,-0.03479,0.9982,-2.468,0.595,-0.368,6140,68265,102593
1.34,134,6978,1,0,0,0,847.47314,894.39392,1638.03101,1725.38757,-0.02832,-0.03272,0.99796,-2.468,0.788,-0.438,6140,68265,102593
1.35,135,6979,1,0,0,0,847.47314,894.08875,1638.33618,1725.0824,-0.02612,-0.03198,0.99637,-2.59,0.753,-0.333,6143,68266,102602
1.36,136,6980,1,0,0,0,847.47314,894.08875,1637.95471,1725.38757,-0.02747,-0.03259,0.99722,-2.835,0.823,-0.368,6143,68266,102602
1.37,137,6981,1,0,0,0,847.47314,894.08875,1638.1073,1725.23499,-0.02783,-0.03418,0.99979,-2.923,0.788,-0.123,6142,68267,102596
1.38,138,6982,1,0,0,0,847.47314,894.08875,1638.25989,1725.84534,-0.02881,-0.03589,0.99954,-2.888,0.735,-0.228,6142,68267,102596
1.39,139,6983,1,0,0,0,847.47314,894.08875,1638.25989,1725.76904,-0.0271,-0.03516,0.99808,-2.8,0.648,-0.053,6142,68268,102602
1.4,140,6984,1,0,0,0,847.62573,894.08875,1638.33618,1725.0824,-0.02637,-0.03406,0.99698,-2.958,0.718,-0.018,6142,68268,102602
1.41,141,6985,1,0,0,0,847.62573,894.08875,1638.18359,1725.31128,-0.026,-0.03406,0.99869,-2.94,0.7,0.018,6144,68265,102602
1.42,142,6986,1,0,0,0,847.62573,894.08875,1638.33618,1725.15869,-0.02783,-0.03345,0.99954,-3.133,0.893,-0.193,6144,68265,102602
1.43,143,6987,1,0,0,0,847.62573,894.08875,1638.33618,1725.61646,-0.02942,-0.03504,1.00113,-3.08,0.875,-0.07,6141,68263,102606
1.44,144,6988,1,0,0,0,847.62573,894.08875,1638.56506,1725.54016,-0.02979,-0.03967,1.00015,-3.22,0.858,0.018,6141,68263,102606
1.45,145,6989,1,0,0,0,847.62573,894.54651,1638.56506,1725.54016,-0.02857,-0.03919,0.99979,-2.94,0.805,-0.105,6143,68266,102611
1.46,146,6990,1,0,0,0,847.62573,894.54651,1638.1073,1725.0824,-0.02783,-0.0387,0.99832,-2.748,0.77,-0.14,6143,68266,102611
1.47,147,6991,1,0,0,0,847.62573,894.54651,1638.41248,1725.38757,-0.02905,-0.0376,0.99844,-2.59,0.7,0.018,6146,68263,102608
1.48,148,6992,1,0,0,0,847.62573,894.54651,1638.33618,1725.76904,-0.02979,-0.03735,0.99832,-2.625,0.7,-0.158,6146,68263,102608
1.49,149,6993,1,0,0,0,847.62573,894.54651,1638.25989,1725.23499,-0.03101,-0.03772,0.99966,-2.66,0.7,-0.263,6147,68270,102614
1.5,150,6994,1,0,0,0,847.70203,894.54651,1638.41248,1725.61646,-0.0315,-0.03833,1.00003,-2.713,0.683,-0.158,6147,68270,102614
1.51,151,6995,1,0,0,0,847.70203,894.54651,1638.25989,1725.69275,-0.0282,-0.0398,0.99808,-2.818,0.7,-0.228,6146,68268,102618
1.52,152,6996,1,0,0,0,847.70203,894.54651,1638.41248,1725.61646,-0.03052,-0.0376,1.00027,-2.818,0.648,-0.368,6146,68268,102618
1.53,153,6997,1,0,0,0,847.70203,894.54651,1638.41248,1725.31128,-0.02893,-0.03735,1.00015,-2.678,0.665,-0.333,6146,68268,102622
1.54,154,6998,1,0,0,0,847.70203,894.54651,1638.41248,1725.38757,-0.0282,-0.03723,0.99869,-2.555,0.63,-0.473,6146,68268,102622
1.55,155,6999,1,0,0,0,847.70203,894.39392,1638.33618,1725.15869,-0.02625,-0.03723,0.99759,-2.573,0.63,-0.508,6150,68267,102623
1.56,156,7000,1,0,0,0,847.70203,894.39392,1638.41248,1725.23499,-0.02686,-0.03797,0.99759,-2.765,0.7,-0.543,6150,68267,102623
1.57,157,7001,1,0,0,0,847.70203,894.39392,1638.25989,1725.23499,-0.0282,-0.03821,0.99918,-2.923,0.77,-0.7,6151,68270,102623
1.58,158,7002,1,0,0,0,847.70203,894.39392,1638.25989,1725.92163,-0.02979,-0.03772,0.99881,-2.835,0.805,-0.595,6151,68270,102623
1.59,159,7003,1,0,0,0,847.70203,894.39392,1638.41248,1725.54016,-0.02759,-0.03638,0.99869,-2.503,0.665,-0.525,6156,68271,102625
1.6,160,7004,1,0,0,0,847.62573,894.39392,1638.64136,1725.23499,-0.02759,-0.0354,0.99991,-2.643,0.595,-0.403,6156,68271,102625
1.61,161,7005,1,0,0,0,847.62573,894.39392,1638.18359,1725.15869,-0.0293,-0.03601,0.99857,-2.853,0.753,-0.543,6154,68271,102631
1.62,162,7006,1,0,0,0,847.62573,894.39392,1638.33618,1725.61646,-0.03015,-0.03699,0.99893,-2.87,0.858,-0.455,6154,68271,102631
1.63,163,7007,1,0,0,0,847.62573,894.39392,1638.33618,1724.85352,-0.0293,-0.03858,0.99783,-2.905,0.998,-0.613,6156,68270,102634
1.64,164,7008,1,0,0,0,847.62573,894.39392,1638.25989,1725.61646,-0.02881,-0.04004,0.99808,-2.66,0.963,-0.578,6156,68270,102634
1.65,165,7009,1,0,0,0,847.62573,894.47021,1638.25989,1725.0824,-0.02918,-0.03699,0.99918,-2.485,1.033,-0.613,6157,68271,102635
1.66,166,7010,1,0,0,0,847.62573,894.47021,1638.03101,1725.15869,-0.0304,-0.03467,1.00027,-2.398,0.998,-0.49,6157,68271,102635
1.67,167,7011,1,0,0,0,847.62573,894.47021,1638.25989,1724.85352,-0.03003,-0.0354,1.00247,-2.59,0.84,-0.42,6159,68270,102633
1.68,168,7012,1,0,0,0,847.62573,894.47021,1638.33618,1724.92981,-0.0315,-0.03894,1.00443,-3.01,0.753,-0.42,6159,68270,102633
1.69,169,7013,1,0,0,0,847.62573,894.47021,1638.25989,1724.77722,-0.03064,-0.04199,1.00223,-2.73,0.63,-0.193,6159,68271,102639
1.7,170,7014,1,0,0,0,847.62573,894.47021,1638.1073,1725.0061,-0.02918,-0.03674,0.99747,-2.135,0.595,-0.63,6159,68271,102639
1.71,171,7015,1,0,0,0,847.62573,894.47021,1638.18359,1725.0061,-0.02795,-0.03174,0.99576,-2.135,0.525,-0.683,6160,68269,102639
1.72,172,7016,1,0,0,0,847.62573,894.47021,1638.18359,1725.0824,-0.02893,-0.02905,0.99734,-2.485,0.543,-0.298,6160,68269,102639
1.73,173,7017,1,0,0,0,847.62573,894.47021,1637.72583,1725.0061,-0.02857,-0.03113,0.99905,-2.923,0.578,-0.42,6162,68271,102640
1.74,174,7018,1,0,0,0,847.62573,894.47021,1637.80212,1725.0824,-0.0282,-0.03394,0.99979,-3.15,0.578,-0.315,6162,68271,102640
1.75,175,7019,1,0,0,0,847.62573,894.47021,1638.03101,1725.46387,-0.0304,-0.03455,1.00235,-2.94,0.683,-0.385,6164,68272,102647
1.76,176,7020,1,0,0,0,847.62573,894.47021,1637.42065,1725.31128,-0.03113,-0.03748,1.00003,-2.958,0.718,-0.578,6164,68272,102647
1.77,177,7021,1,0,0,0,847.62573,894.47021,1637.72583,1725.31128,-0.03211,-0.04065,0.99808,-2.923,0.788,-0.49,6165,68271,102645
1.78,178,7022,1,0,0,0,847.62573,894.47021,1638.33618,1725.69275,-0.02844,-0.0437,0.99759,-2.87,0.7,-0.175,6165,68271,102645
1.79,179,7023,1,0,0,0,847.62573,894.47021,1638.25989,1725.46387,-0.02771,-0.04297,0.99893,-2.695,0.718,-0.28,6164,68270,102634
1.8,180,7024,1,0,0,0,847.62573,894.47021,1638.25989,1725.0061,-0.0293,-0.03711,1.00027,-2.363,0.543,-0.333,6164,68270,102634
1.81,181,7025,1,0,0,0,847.62573,894.47021,1638.03101,1725.31128,-0.02881,-0.03638,1.00101,-2.188,0.578,-0.245,6158,68267,102622
1.82,182,7026,1,0,0,0,847.62573,894.47021,1638.1073,1725.23499,-0.02918,-0.0376,1.00089,-2.205,0.63,-0.14,6158,68267,102622
1.83,183,7027,1,0,0,0,847.62573,894.47021,1638.18359,1725.0061,-0.02893,-0.03748,1.00003,-2.17,0.613,-0.385,6151,68264,102603
1.84,184,7028,1,0,0,0,847.62573,894.47021,1638.18359,1725.0824,-0.03015,-0.03699,0.99771,-2.258,0.665,-0.333,6151,68264,102603
1.85,185,7029,1,0,0,0,847.62573,894.24133,1638.33618,1725.31128,-0.02918,-0.03601,0.99515,-2.45,0.735,-0.385,6145,68260,102589
1.86,186,7030,1,0,0,0,847.62573,894.24133,1638.03101,1725.0061,-0.02966,-0.03662,0.99796,-2.555,0.683,-0.42,6145,68260,102589
1.87,187,7031,1,0,0,0,847.62573,894.24133,1638.25989,1725.0061,-0.0304,-0.03894,1.00003,-2.555,0.683,-0.42,6135,68261,102585
1.88,188,7032,1,0,0,0,847.62573,894.24133,1638.1073,1725.15869,-0.03174,-0.03919,1.00015,-2.573,0.735,-0.473,6135,68261,102585
1.89,189,7033,1,0,0,0,847.62573,894.24133,1638.25989,1725.38757,-0.03027,-0.03967,1.00113,-2.45,0.823,-0.438,6132,68262,102576
1.9,190,7034,1,0,0,0,847.54944,894.24133,1638.94653,1725.76904,-0.03076,-0.03845,1.00162,-1.96,0.788,-0.508,6132,68262,102576
1.91,191,7035,1,0,0,0,847.54944,894.24133,1638.18359,1725.0061,-0.02918,-0.03772,1.00076,-1.925,0.735,-0.508,6126,68260,102568
1.92,192,7036,1,0,0,0,847.54944,894.24133,1638.25989,1725.0061,-0.02954,-0.03565,1.00052,-1.995,0.665,-0.385,6126,68260,102568
1.93,193,7037,1,0,0,0,847.54944,894.24133,1638.25989,1725.0061,-0.0282,-0.03638,0.9993,-2.083,0.648,-0.49,6118,68258,102558
1.94,194,7038,1,0,0,0,847.54944,894.24133,1638.18359,1725.69275,-0.0282,-0.03638,1.00015,-2.083,0.613,-0.403,6118,68258,102558
1.95,195,7039,1,0,0,0,847.54944,894.31763,1638.25989,1725.31128,-0.02698,-0.03516,0.9993,-2.328,0.613,-0.683,6112,68252,102551
1.96,196,7040,1,0,0,0,847.54944,894.31763,1638.1073,1725.0824,-0.0271,-0.03577,0.99979,-2.45,0.683,-0.543,6112,68252,102551
1.97,197,7041,1,0,0,0,847.54944,894.31763,1638.33618,1725.15869,-0.02905,-0.03699,1.00064,-2.573,0.683,-0.525,6112,68256,102552
1.98,198,7042,1,0,0,0,847.54944,894.31763,1638.33618,1726.37939,-0.0304,-0.03784,1.00027,-2.555,0.665,-0.525,6112,68256,102552
1.99,199,7043,1,0,0,0,847.54944,894.31763,1638.33618,1725.0061,-0.03003,-0.03723,0.99979,-2.363,0.63,-0.525,6107,68262,102549
2.0,200,7044,1,0,0,0,847.70203,894.31763,1638.33618,1724.92981,-0.02832,-0.03565,0.99734,-2.17,0.63,-0.578,6107,68262,102549
2.01,201,7045,1,0,0,0,847.70203,894.31763,1638.25989,1724.85352,-0.03015,-0.03491,1.00015,-2.363,0.7,-0.63,6103,68257,102542
2.02,202,7046,1,0,0,0,847.70203,894.31763,1638.33618,1725.0061,-0.03125,-0.03479,0.99905,-2.415,0.7,-0.56,6103,68257,102542
2.03,203,7047,1,0,0,0,847.70203,894.31763,1638.18359,1725.0061,-0.03088,-0.03504,0.99857,-2.573,0.718,-0.368,6099,68257,102544
2.04,204,7048,1,0,0,0,847.70203,894.31763,1638.25989,1725.15869,-0.02893,-0.03516,0.9982,-2.52,0.595,-0.403,6099,68257,102544
2.05,205,7049,1,0,0,0,847.70203,894.31763,1639.17542,1725.0061,-0.02869,-0.03479,0.99991,-2.503,0.683,-0.77,6097,68257,102546
2.06,206,7050,1,0,0,0,847.70203,894.31763,1638.03101,1725.0824,-0.02857,-0.03479,1.00113,-2.538,0.788,-0.525,6097,68257,102546
2.07,207,7051,1,0,0,0,847.70203,894.31763,1638.33618,1725.23499,-0.02783,-0.0365,0.99966,-2.625,0.543,-0.473,6097,68257,102547
2.08,208,7052,1,0,0,0,847.70203,894.31763,1638.25989,1725.31128,-0.02686,-0.03845,0.99918,-2.835,0.473,-0.438,6097,68257,102547
2.09,209,7053,1,0,0,0,847.70203,894.31763,1638.18359,1725.0824,-0.02747,-0.03772,0.99991,-2.835,0.508,-0.333,6098,68258,102547
2.1,210,7054,1,0,0,0,847.62573,894.31763,1638.25989,1725.23499,-0.02808,-0.03772,0.99942,-2.8,0.613,-0.525,6098,68258,102547
2.11,211,7055,1,0,0,0,847.62573,894.31763,1638.1073,1725.15869,-0.02808,-0.03772,0.99942,-2.73,0.788,-0.525,6095,68258,102546
2.12,212,7056,1,0,0,0,847.62573,894.31763,1638.25989,1725.15869,-0.03125,-0.03394,0.99991,-2.503,0.7,-0.385,6095,68258,102546
2.13,213,7057,1,0,0,0,847.62573,894.31763,1638.33618,1725.15869,-0.02918,-0.03394,0.99954,-2.59,0.77,-0.368,6095,68258,102550
2.14,214,7058,1,0,0,0,847.62573,894.31763,1638.25989,1725.0824,-0.03015,-0.03333,1.00027,-2.765,0.718,-0.298,6095,68258,102550
2.15,215,7059,1,0,0,0,847.62573,894.31763,1638.33618,1725.31128,-0.02942,-0.03467,0.9993,-2.958,0.84,-0.368,6095,68259,102553
2.16,216,7060,1,0,0,0,847.62573,894.31763,1638.03101,1724.92981,-0.02857,-0.03467,0.99698,-2.8,0.823,-0.175,6095,68259,102553
2.17,217,7061,1,0,0,0,847.62573,894.31763,1638.18359,1725.0061,-0.0293,-0.03565,0.99832,-2.958,0.875,-0.07,6094,68258,102547
2.18,218,7062,1,0,0,0,847.62573,894.31763,1638.1073,1725.38757,-0.0282,-0.03687,1.00003,-2.94,0.945,-0.018,6094,68258,102547
2.19,219,7063,1,0,0,0,847.62573,894.31763,1638.41248,1724.85352,-0.02893,-0.03858,1.0004,-3.045,0.823,-0.088,6095,68261,102554
2.2,220,7064,1,0,0,0,847.54944,894.31763,1638.33618,1725.0061,-0.0293,-0.03845,1.00223,-2.783,0.788,0.07,6095,68261,102554
2.21,221,7065,1,0,0,0,847.54944,894.31763,1638.03101,1724.92981,-0.02942,-0.04028,1.00198,-2.608,0.595,-0.088,6095,68261,102554
2.22,222,7066,1,0,0,0,847.54944,894.31763,1638.25989,1725.0061,-0.02612,-0.03833,0.99881,-2.485,0.63,-0.123,6092,68263,102557
2.23,223,7067,1,0,0,0,847.54944,894.31763,1638.33618,1725.46387,-0.02881,-0.03711,0.99808,-2.415,0.613,-0.07,6092,68263,102557
2.24,224,7068,1,0,0,0,847.54944,894.31763,1638.25989,1724.92981,-0.02942,-0.03699,0.99673,-2.608,0.753,-0.175,6095,68265,102557
2.25,225,7069,1,0,0,0,847.54944,894.08875,1638.33618,1725.46387,-0.03052,-0.03797,0.9982,-2.748,0.858,-0.018,6095,68263,102566
2.26,226,7070,1,0,0,0,847.54944,894.08875,1638.03101,1725.0061,-0.02942,-0.0376,0.9993,-2.713,0.823,-0.018,6095,68263,102566
2.27,227,7071,1,0,0,0,847.54944,894.08875,1638.25989,1725.0061,-0.02881,-0.03943,0.99942,-2.73,0.858,-0.158,6095,68263,102566
2.28,228,7072,1,0,0,0,847.54944,894.08875,1638.18359,1725.0824,-0.03064,-0.03967,0.9982,-2.748,0.77,-0.175,6095,68264,102570
2.29,229,7073,1,0,0,0,847.54944,894.08875,1638.18359,1725.15869,-0.03015,-0.03894,0.99759,-2.573,0.718,-0.298,6095,68264,102570
2.3,230,7074,1,0,0,0,847.47314,894.08875,1638.25989,1725.0061,-0.03003,-0.03784,0.99966,-2.503,0.665,-0.333,6094,68267,102570
2.31,231,7075,1,0,0,0,847.47314,894.08875,1637.95471,1725.0824,-0.03003,-0.03821,0.99954,-2.503,0.648,-0.403,6094,68267,102570
2.32,232,7076,1,0,0,0,847.47314,894.08875,1638.1073,1725.0824,-0.0293,-0.04065,0.99918,-2.608,0.77,-0.508,6093,68270,102585
2.33,233,7077,1,0,0,0,847.47314,894.08875,1638.18359,1725.0824,-0.02991,-0.04016,0.99893,-2.905,0.63,-0.578,6093,68270,102585
2.34,234,7078,1,0,0,0,847.47314,894.08875,1638.18359,1725.0061,-0.02942,-0.03931,0.99954,-2.573,0.753,-0.753,6099,68273,102582
2.35,235,7079,1,0,0,0,847.47314,894.24133,1638.64136,1725.0824,-0.02857,-0.03992,0.99869,-2.38,0.718,-0.665,6100,68268,102586
2.36,236,7080,1,0,0,0,847.47314,894.24133,1637.80212,1725.23499,-0.02893,-0.03821,0.99979,-2.205,0.648,-0.665,6100,68268,102586
2.37,237,7081,1,0,0,0,847.47314,894.24133,1638.1073,1725.76904,-0.02893,-0.03699,0.99979,-2.293,0.7,-0.595,6100,68268,102586
2.38,238,7082,1,0,0,0,847.47314,894.24133,1638.1073,1725.0824,-0.02759,-0.0387,0.9993,-2.398,0.613,-0.595,6101,68268,102590
2.39,239,7083,1,0,0,0,847.47314,894.24133,1638.1073,1725.0061,-0.0282,-0.03748,1.00003,-2.485,0.788,-0.84,6101,68268,102590
2.4,240,7084,1,0,0,0,847.70203,894.24133,1638.25989,1725.0824,-0.02857,-0.03687,0.99954,-2.398,0.735,-0.683,6103,68272,102599
2.41,241,7085,1,0,0,0,847.70203,894.24133,1638.03101,1725.31128,-0.02857,-0.03638,0.99966,-2.485,0.823,-0.595,6103,68272,102599
2.42,242,7086,1,0,0,0,847.70203,894.24133,1638.25989,1725.54016,-0.02832,-0.03638,0.99759,-2.433,0.893,-0.578,6101,68272,102600
2.43,243,7087,1,0,0,0,847.70203,894.24133,1638.25989,1725.0061,-0.02979,-0.0376,0.99966,-2.31,0.858,-0.403,6101,68272,102600
2.44,244,7088,1,0,0,0,847.70203,894.24133,1638.1073,1725.69275,-0.03027,-0.03699,1.00027,-2.135,0.91,-0.403,6105,68274,102603
2.45,245,7089,1,0,0,0,847.70203,894.24133,1638.18359,1725.15869,-0.02942,-0.03723,1.00076,-2.293,0.788,-0.333,6105,68272,102609
2.46,246,7090,1,0,0,0,847.70203,894.24133,1638.1073,1725.15869,-0.0282,-0.0387,1.00052,-2.345,0.718,-0.508,6105,68272,102609
2.47,247,7091,1,0,0,0,847.70203,894.24133,1638.18359,1725.0061,-0.02918,-0.03784,1.00162,-2.24,0.665,-0.403,6105,68272,102609
2.48,248,7092,1,0,0,0,847.70203,894.24133,1638.18359,1725.15869,-0.02869,-0.03626,0.99954,-2.048,0.63,-0.56,6108,68276,102613
2.49,249,7093,1,0,0,0,847.70203,894.24133,1638.33618,1724.92981,-0.02698,-0.03662,0.99747,-1.873,0.525,-0.595,6108,68276,102613
2.5,250,7094,1,0,0,0,847.54944,894.24133,1638.25989,1724.92981,-0.02783,-0.03516,0.99881,-1.995,0.525,-0.63,6111,68279,102612
2.51,251,7095,1,0,0,0,847.54944,894.24133,1637.80212,1724.92981,-0.02954,-0.03589,1.00015,-2.065,0.578,-0.718,6111,68279,102612
2.52,252,7096,1,0,0,0,847.54944,894.24133,1637.57324,1724.92981,-0.03003,-0.03638,1.00027,-2.048,0.56,-0.595,6113,68278,102623
2.53,253,7097,1,0,0,0,847.54944,894.24133,1637.64954,1725.15869,-0.02918,-0.03906,0.99954,-2.17,0.63,-0.368,6113,68278,102623
2.54,254,7098,1,0,0,0,847.54944,894.24133,1637.57324,1724.92981,-0.02979,-0.03723,0.99686,-2.188,0.63,-0.42,6113,68280,102630
2.55,255,7099,1,0,0,0,847.54944,894.16504,1637.87842,1724.77722,-0.02942,-0.03687,0.99625,-2.048,0.578,-0.42,6112,68281,102632
2.56,256,7100,1,0,0,0,847.54944,894.16504,1637.34436,1724.92981,-0.02991,-0.03467,0.99661,-2.118,0.56,-0.7,6112,68281,102632
2.57,257,7101,1,0,0,0,847.54944,894.16504,1637.57324,1724.92981,-0.03015,-0.03394,0.99979,-2.328,0.77,-0.77,6112,68281,102632
2.58,258,7102,1,0,0,0,847.54944,894.16504,1637.57324,1725.0824,-0.0282,-0.0343,0.99979,-2.223,0.788,-0.543,6116,68284,102636
2.59,259,7103,1,0,0,0,847.54944,894.16504,1637.64954,1725.0824,-0.02759,-0.03784,0.99991,-2.608,0.648,-0.403,6116,68284,102636
2.6,260,7104,1,0,0,0,847.24426,894.16504,1637.64954,1724.85352,-0.02966,-0.04016,1.00101,-2.573,0.753,-0.49,6121,68287,102643
2.61,261,7105,1,0,0,0,847.24426,894.16504,1637.95471,1724.85352,-0.03015,-0.04077,1.00003,-2.485,0.7,-0.613,6121,68287,102643
2.62,262,7106,1,0,0,0,847.24426,894.16504,1638.18359,1725.0061,-0.03027,-0.03955,0.99954,-2.433,0.718,-0.823,6121,68289,102646
2.63,263,7107,1,0,0,0,847.24426,894.16504,1638.1073,1725.0061,-0.02759,-0.0365,0.9971,-2.135,0.665,-0.648,6121,68289,102646
2.64,264,7108,1,0,0,0,847.24426,894.16504,1638.25989,1724.92981,-0.02588,-0.03235,0.99759,-2.398,0.683,-0.665,6122,68287,102654
2.65,265,7109,1,0,0,0,847.24426,894.24133,1638.79395,1725.15869,-0.02869,-0.03125,1.00003,-2.573,0.753,-0.508,6122,68287,102654
2.66,266,7110,1,0,0,0,847.24426,894.24133,1637.95471,1724.92981,-0.02942,-0.03589,1.00076,-2.748,0.823,-0.508,6122,68292,102660
2.67,267,7111,1,0,0,0,847.24426,894.24133,1638.18359,1724.92981,-0.03418,-0.03735,1.00272,-2.923,0.875,-0.613,6122,68292,102660
2.68,268,7112,1,0,0,0,847.24426,894.24133,1638.1073,1724.70093,-0.0332,-0.04041,1.00101,-2.748,0.788,-0.56,6126,68292,102664
2.69,269,7113,1,0,0,0,847.24426,894.24133,1638.03101,1724.85352,-0.03174,-0.04138,0.99991,-2.17,0.63,-0.613,6126,68292,102664
2.7,270,7114,1,0,0,0,847.47314,894.24133,1637.95471,1724.92981,-0.0282,-0.04089,0.9993,-1.873,0.438,-0.473,6130,68295,102665
2.71,271,7115,1,0,0,0,847.47314,894.24133,1637.80212,1725.0061,-0.02637,-0.03906,0.99832,-1.663,0.455,-0.595,6130,68295,102665
2.72,272,7116,1,0,0,0,847.47314,894.24133,1638.1073,1724.77722,-0.02564,-0.03638,0.99637,-1.75,0.595,-0.735,6126,68291,102650
2.73,273,7117,1,0,0,0,847.47314,894.24133,1638.1073,1724.85352,-0.02734,-0.03394,1.00015,-1.803,0.595,-0.525,6126,68291,102650
2.74,274,7118,1,0,0,0,847.47314,894.24133,1637.87842,1724.54834,-0.03052,-0.03735,1.00125,-2.135,0.543,-0.665,6122,68292,102642
2.75,275,7119,1,0,0,0,847.47314,894.16504,1638.03101,1725.0061,-0.03015,-0.03748,0.99832,-1.768,0.63,-0.788,6122,68292,102642
2.76,276,7120,1,0,0,0,847.47314,894.16504,1638.1073,1724.92981,-0.02979,-0.03565,0.99783,-1.733,0.7,-0.91,6116,68290,102631
2.77,277,7121,1,0,0,0,847.47314,894.16504,1638.1073,1725.15869,-0.02966,-0.03357,0.99637,-1.768,0.718,-0.823,6116,68290,102631
2.78,278,7122,1,0,0,0,847.47314,894.16504,1638.1073,1725.0061,-0.02966,-0.03601,0.99686,-1.995,0.753,-0.7,6108,68286,102619
2.79,279,7123,1,0,0,0,847.47314,894.16504,1638.1073,1725.61646,-0.03088,-0.0365,1.00064,-2.188,0.648,-0.683,6108,68286,102619
2.8,280,7124,1,0,0,0,847.39685,894.16504,1638.48877,1724.77722,-0.0293,-0.03784,1.00186,-1.785,0.578,-0.63,6102,68284,102609
2.81,281,7125,1,0,0,0,847.39685,894.16504,1637.80212,1725.0061,-0.02857,-0.03784,0.99991,-1.82,0.473,-0.84,6102,68284,102609
2.82,282,7126,1,0,0,0,847.39685,894.16504,1638.03101,1724.92981,-0.02869,-0.0354,0.99722,-1.785,0.525,-0.823,6097,68284,102603
2.83,283,7127,1,0,0,0,847.39685,894.16504,1637.95471,1725.0061,-0.02857,-0.03552,0.99637,-1.75,0.56,-0.595,6097,68284,102603
2.84,284,7128,1,0,0,0,847.39685,894.16504,1637.95471,1724.85352,-0.02905,-0.03406,0.99747,-1.715,0.665,-0.788,6091,68283,102594
2.85,285,7129,1,0,0,0,847.39685,894.24133,1638.25989,1725.15869,-0.02612,-0.03369,0.99844,-1.89,0.595,-0.84,6091,68283,102594
2.86,286,7130,1,0,0,0,847.39685,894.24133,1637.87842,1724.92981,-0.02808,-0.03125,1.0015,-1.855,0.63,-0.823,6090,68281,102589
2.87,287,7131,1,0,0,0,847.39685,894.24133,1637.95471,1725.0061,-0.02625,-0.03174,1.00113,-1.943,0.63,-0.648,6090,68281,102589
2.88,288,7132,1,0,0,0,847.39685,894.24133,1637.95471,1725.0824,-0.02637,-0.03125,1.00089,-2.083,0.613,-0.735,6081,68279,102586
2.89,289,7133,1,0,0,0,847.39685,894.24133,1637.87842,1725.0061,-0.02503,-0.03381,0.99881,-2.118,0.613,-0.665,6081,68279,102586
2.9,290,7134,1,0,0,0,847.47314,894.24133,1638.1073,1724.92981,-0.02698,-0.03528,0.99637,-2.118,0.63,-0.543,6079,68278,102583
2.91,291,7135,1,0,0,0,847.47314,894.24133,1637.87842,1724.70093,-0.02686,-0.03418,0.99844,-2.013,0.665,-0.543,6079,68278,102583
2.92,292,7136,1,0,0,0,847.47314,894.24133,1638.1073,1724.92981,-0.02759,-0.03504,1.00003,-2.083,0.718,-0.455,6077,68281,102578
2.93,293,7137,1,0,0,0,847.47314,894.24133,1638.1073,1725.0824,-0.02808,-0.03491,0.99991,-2.293,0.735,-0.63,6077,68281,102578
2.94,294,7138,1,0,0,0,847.47314,894.24133,1638.25989,1725.0061,-0.02918,-0.0343,0.99918,-2.275,0.735,-0.613,6073,68278,102572
2.95,295,7139,1,0,0,0,847.47314,894.31763,1638.64136,1725.0824,-0.02857,-0.03284,0.99991,-2.223,0.595,-0.455,6073,68278,102572
2.96,296,7140,1,0,0,0,847.47314,894.31763,1637.87842,1725.0824,-0.02747,-0.03247,0.99771,-1.89,0.56,-0.368,6074,68277,102571
2.97,297,7141,1,0,0,0,847.47314,894.31763,1638.1073,1725.0061,-0.02905,-0.03076,0.99918,-1.855,0.578,-0.455,6074,68277,102571
2.98,298,7142,1,0,0,0,847.47314,894.31763,1638.03101,1724.85352,-0.03027,-0.0315,0.99966,-1.978,0.683,-0.455,6070,68281,102571
2.99,299,7143,1,0,0,0,847.47314,894.31763,1638.03101,1725.15869,-0.0293,-0.03357,1.00125,-2.188,0.7,-0.525,6070,68281,102571
3.0,300,7144,1,0,0,0,847.54944,894.31763,1638.1073,1724.92981,-0.02698,-0.03626,0.99991,-2.31,0.473,-0.368,6072,68280,102568
3.01,301,7145,1,0,0,0,847.54944,894.31763,1637.72583,1724.85352,-0.02527,-0.03516,0.99771,-2.135,0.543,-0.245,6072,68280,102568
3.02,302,7146,1,0,0,0,847.54944,894.31763,1637.95471,1725.15869,-0.02661,-0.03345,1.00003,-2.118,0.63,-0.403,6072,68281,102568
3.03,303,7147,1,0,0,0,847.54944,894.31763,1638.1073,1725.54016,-0.02832,-0.0332,0.99966,-2.258,0.63,-0.595,6072,68281,102568
3.04,304,7148,1,0,0,0,847.54944,894.31763,1638.1073,1725.23499,-0.02857,-0.03394,0.99893,-2.258,0.735,-0.578,6071,68280,102567
3.05,305,7149,1,0,0,0,847.54944,894.16504,1637.87842,1725.0061,-0.02661,-0.03259,0.99991,-2.153,0.613,-0.438,6071,68280,102567
3.06,306,7150,1,0,0,0,847.54944,894.16504,1637.87842,1725.23499,-0.02869,-0.03015,0.9993,-2.17,0.595,-0.49,6069,68279,102563
3.07,307,7151,1,0,0,0,847.54944,894.16504,1637.95471,1725.0824,-0.02942,-0.0315,0.9982,-2.31,0.56,-0.42,6069,68279,102563
3.08,308,7152,1,0,0,0,847.54944,894.16504,1638.03101,1725.31128,-0.02869,-0.03272,0.99881,-2.59,0.613,-0.385,6072,68281,102570
3.09,309,7153,1,0,0,0,847.54944,894.16504,1637.42065,1725.31128,-0.02734,-0.03455,0.99698,-2.538,0.718,-0.438,6072,68281,102570
3.1,310,7154,1,0,0,0,847.16797,894.16504,1638.48877,1725.0061,-0.02954,-0.03406,0.99991,-2.415,0.753,-0.403,6073,68281,102566
3.11,311,7155,1,0,0,0,847.16797,894.16504,1637.19177,1725.31128,-0.02966,-0.03516,1.0004,-2.59,0.77,-0.455,6073,68281,102566
3.12,312,7156,1,0,0,0,847.16797,894.16504,1637.49695,1725.0061,-0.02661,-0.03589,0.99869,-2.59,0.49,-0.298,6072,68283,102568
3.13,313,7157,1,0,0,0,847.16797,894.16504,1638.03101,1724.85352,-0.02832,-0.03455,0.99771,-2.485,0.525,-0.508,6072,68283,102568
3.14,314,7158,1,0,0,0,847.16797,894.16504,1637.95471,1725.0061,-0.02857,-0.03357,0.99734,-2.398,0.648,-0.543,6074,68281,102571
3.15,315,7159,1,0,0,0,847.16797,894.16504,1638.1073,1724.77722,-0.02942,-0.03479,0.99869,-2.608,0.753,-0.595,6074,68281,102571
3.16,316,7160,1,0,0,0,847.16797,894.16504,1637.80212,1724.70093,-0.0293,-0.03296,0.99905,-2.59,0.735,-0.438,6075,68277,102567
3.17,317,7161,1,0,0,0,847.16797,894.16504,1637.95471,1724.77722,-0.02747,-0.03308,0.99832,-2.573,0.753,-0.648,6075,68277,102567
3.18,318,7162,1,0,0,0,847.16797,894.16504,1638.03101,1725.31128,-0.02808,-0.03198,1.0004,-2.52,0.735,-0.42,6075,68280,102571
3.19,319,7163,1,0,0,0,847.16797,894.16504,1637.87842,1725.0824,-0.02832,-0.03308,0.99905,-2.643,0.77,-0.193,6075,68280,102571
3.2,320,7164,1,0,0,0,847.47314,894.16504,1637.87842,1724.85352,-0.02698,-0.03589,1.00015,-2.66,0.823,-0.578,6076,68285,102578
3.21,321,7165,1,0,0,0,847.47314,894.16504,1637.80212,1725.15869,-0.02686,-0.03491,1.00027,-2.45,0.753,-0.473,6076,68285,102578
3.22,322,7166,1,0,0,0,847.47314,894.16504,1638.03101,1725.23499,-0.02612,-0.03589,0.99698,-2.275,0.753,-0.56,6075,68282,102577
3.23,323,7167,1,0,0,0,847.47314,894.16504,1638.03101,1724.77722,-0.02783,-0.03467,0.99942,-2.275,0.665,-0.455,6075,68282,102577
3.24,324,7168,1,0,0,0,847.47314,894.16504,1638.25989,1724.62463,-0.0293,-0.03296,0.99808,-2.38,0.7,-0.42,6080,68285,102577
3.25,325,7169,1,0,0,0,847.47314,894.01245,1637.95471,1725.23499,-0.02771,-0.03442,0.99832,-2.433,0.753,-0.56,6080,68285,102577
3.26,326,7170,1,0,0,0,847.47314,894.01245,1637.34436,1725.0061,-0.02771,-0.03442,0.99686,-2.485,0.665,-0.56,6079,68285,102579
3.27,327,7171,1,0,0,0,847.47314,894.01245,1637.49695,1724.92981,-0.02832,-0.03247,0.99979,-2.398,0.718,-0.753,6079,68285,102579
3.28,328,7172,1,0,0,0,847.47314,894.01245,1638.03101,1725.15869,-0.02832,-0.03272,1.00076,-2.415,0.665,-0.823,6081,68283,102576
3.29,329,7173,1,0,0,0,847.47314,894.01245,1637.95471,1725.38757,-0.02844,-0.03418,1.00076,-2.433,0.683,-0.578,6081,68283,102576
3.3,330,7174,1,0,0,0,847.54944,894.01245,1638.1073,1724.77722,-0.02698,-0.03674,0.99979,-2.398,0.718,-0.63,6082,68282,102580
3.31,331,7175,1,0,0,0,847.54944,894.01245,1637.72583,1724.92981,-0.02747,-0.03406,0.99954,-2.258,0.788,-0.665,6082,68282,102580
3.32,332,7176,1,0,0,0,847.54944,894.01245,1637.87842,1724.92981,-0.02734,-0.0332,0.99991,-2.275,0.648,-0.683,6086,68281,102586
3.33,333,7177,1,0,0,0,847.54944,894.01245,1638.03101,1725.61646,-0.0271,-0.03333,0.99771,-2.153,0.56,-0.718,6086,68281,102586
3.34,334,7178,1,0,0,0,847.54944,894.01245,1637.80212,1725.0824,-0.02771,-0.03259,0.99722,-2.17,0.683,-0.683,6087,68283,102588
3.35,335,7179,1,0,0,0,847.54944,894.31763,1638.1073,1725.54016,-0.02795,-0.03198,0.99747,-2.275,0.753,-0.788,6087,68283,102588
3.36,336,7180,1,0,0,0,847.54944,894.31763,1638.33618,1724.85352,-0.03052,-0.03101,1.00027,-2.17,0.735,-0.7,6089,68280,102588
3.37,337,7181,1,0,0,0,847.54944,894.31763,1637.72583,1725.0061,-0.02832,-0.03223,1.0004,-2.538,0.7,-0.718,6089,68280,102588
3.38,338,7182,1,0,0,0,847.54944,894.31763,1637.87842,1724.70093,-0.02893,-0.03369,0.99905,-2.468,0.683,-0.683,6090,68281,102592
3.39,339,7183,1,0,0,0,847.54944,894.31763,1637.95471,1724.70093,-0.02686,-0.03247,0.99954,-2.258,0.543,-0.718,6090,68281,102592
3.4,340,7184,1,0,0,0,847.32056,894.31763,1638.94653,1725.15869,-0.02661,-0.03259,0.99844,-2.345,0.63,-0.7,6094,68282,102595
3.41,341,7185,1,0,0,0,847.32056,894.31763,1637.49695,1724.92981,-0.02795,-0.03162,0.9982,-2.415,0.718,-0.56,6094,68282,102595
3.42,342,7186,1,0,0,0,847.32056,894.31763,1637.95471,1724.70093,-0.02918,-0.03259,1.00015,-2.485,0.753,-0.718,6092,68283,102597
3.43,343,7187,1,0,0,0,847.32056,894.31763,1638.03101,1724.85352,-0.02783,-0.03345,1.00027,-2.678,0.77,-0.718,6092,68283,102597
3.44,344,7188,1,0,0,0,847.32056,894.31763,1637.95471,1725.54016,-0.02869,-0.03211,1.00174,-2.66,0.753,-0.63,6098,68285,102608
3.45,345,7189,1,0,0,0,847.32056,894.39392,1637.95471,1725.46387,-0.02857,-0.03345,0.99991,-2.66,0.595,-0.718,6098,68285,102608
3.46,346,7190,1,0,0,0,847.32056,894.39392,1638.03101,1724.92981,-0.02832,-0.03235,0.99893,-2.59,0.683,-0.438,6098,68286,102609
3.47,347,7191,1,0,0,0,847.32056,894.39392,1637.95471,1724.77722,-0.02783,-0.03052,0.99649,-2.45,0.77,-0.63,6098,68286,102609
3.48,348,7192,1,0,0,0,847.32056,894.39392,1637.95471,1724.70093,-0.02857,-0.03125,0.99698,-2.608,0.7,-0.665,6098,68286,102613
3.49,349,7193,1,0,0,0,847.32056,894.39392,1637.87842,1725.54016,-0.0293,-0.0304,1.00064,-2.713,0.805,-0.595,6098,68286,102613
3.5,350,7194,1,0,0,0,847.47314,894.39392,1637.80212,1725.54016,-0.02857,-0.03162,1.00027,-2.8,0.805,-0.63,6102,68290,102615
3.51,351,7195,1,0,0,0,847.47314,894.39392,1637.87842,1725.38757,-0.02869,-0.03284,1.00137,-2.765,0.718,-0.735,6102,68290,102615
3.52,352,7196,1,0,0,0,847.47314,894.39392,1638.1073,1725.38757,-0.02747,-0.03357,0.99991,-2.678,0.823,-0.63,6107,68288,102620
3.53,353,7197,1,0,0,0,847.47314,894.39392,1638.03101,1724.70093,-0.0282,-0.0343,0.99796,-2.87,0.63,-0.438,6107,68288,102620
3.54,354,7198,1,0,0,0,847.47314,894.39392,1637.95471,1725.46387,-0.02783,-0.03467,0.99905,-2.678,0.648,-0.403,6107,68290,102621
3.55,355,7199,1,0,0,0,847.47314,894.08875,1638.03101,1724.62463,-0.0271,-0.03198,0.99747,-2.398,0.823,-0.315,6107,68290,102621
3.56,356,7200,1,0,0,0,847.47314,894.08875,1637.34436,1724.70093,-0.02857,-0.0315,1.00003,-2.468,0.805,-0.263,6107,68288,102622
3.57,357,7201,1,0,0,0,847.47314,894.08875,1637.42065,1725.0061,-0.02783,-0.03406,0.99966,-2.888,0.788,-0.298,6107,68288,102622
3.58,358,7202,1,0,0,0,847.47314,894.08875,1637.49695,1725.46387,-0.03003,-0.03723,0.99942,-2.66,0.718,-0.543,6110,68291,102629
3.59,359,7203,1,0,0,0,847.47314,894.08875,1637.42065,1725.38757,-0.02783,-0.03479,0.99673,-2.275,0.578,-0.613,6110,68291,102629
3.6,360,7204,1,0,0,0,847.32056,894.08875,1637.57324,1725.15869,-0.02625,-0.0315,0.9949,-2.24,0.595,-0.473,6115,68292,102632
3.61,361,7205,1,0,0,0,847.32056,894.08875,1637.26807,1725.23499,-0.02637,-0.0304,0.99539,-2.608,0.683,-0.438,6115,68292,102632
3.62,362,7206,1,0,0,0,847.32056,894.08875,1637.87842,1725.54016,-0.0271,-0.02893,0.9982,-2.993,0.788,-0.315,6115,68296,102636
3.63,363,7207,1,0,0,0,847.32056,894.08875,1637.95471,1724.70093,-0.0293,-0.03113,1.00345,-3.08,0.928,-0.315,6115,68296,102636
3.64,364,7208,1,0,0,0,847.32056,894.08875,1637.87842,1725.61646,-0.03052,-0.03418,1.00418,-2.923,0.788,-0.263,6120,68297,102645
3.65,365,7209,1,0,0,0,847.32056,894.01245,1638.03101,1725.31128,-0.03357,-0.03601,1.00345,-2.923,0.805,-0.07,6120,68297,102645
3.66,366,7210,1,0,0,0,847.32056,894.01245,1637.87842,1725.38757,-0.02966,-0.03833,1.00027,-2.748,0.753,-0.228,6119,68296,102643
3.67,367,7211,1,0,0,0,847.32056,894.01245,1637.95471,1725.31128,-0.02588,-0.03772,0.99991,-2.31,0.438,-0.053,6119,68296,102643
3.68,368,7212,1,0,0,0,847.32056,894.01245,1637.95471,1724.62463,-0.02466,-0.03406,0.99808,-2.083,0.508,-0.158,6118,68294,102628
3.69,369,7213,1,0,0,0,847.32056,894.01245,1638.03101,1724.85352,-0.02722,-0.03369,1.00015,-2.345,0.56,-0.333,6118,68294,102628
3.7,370,7214,1,0,0,0,847.54944,894.01245,1638.25989,1724.92981,-0.0293,-0.03479,1.00235,-2.363,0.578,-0.315,6112,68288,102613
3.71,371,7215,1,0,0,0,847.54944,894.01245,1637.64954,1725.0061,-0.03003,-0.03577,1.00027,-2.17,0.753,-0.228,6112,68288,102613
3.72,372,7216,1,0,0,0,847.54944,894.01245,1637.95471,1724.85352,-0.03113,-0.03504,0.99869,-2.013,0.595,-0.385,6108,68288,102599
3.73,373,7217,1,0,0,0,847.54944,894.01245,1637.95471,1724.77722,-0.03223,-0.03272,0.99405,-2.03,0.525,-0.525,6108,68288,102599
3.74,374,7218,1,0,0,0,847.54944,894.01245,1638.1073,1724.54834,-0.03137,-0.03259,0.9982,-2.468,0.56,-0.455,6100,68286,102593
3.75,375,7219,1,0,0,0,847.54944,894.39392,1637.87842,1725.15869,-0.03052,-0.03565,0.99905,-2.625,0.753,-0.595,6100,68286,102593
3.76,376,7220,1,0,0,0,847.54944,894.39392,1637.72583,1725.31128,-0.0293,-0.03723,1.00003,-2.468,0.735,-0.613,6096,68285,102587
3.77,377,7221,1,0,0,0,847.54944,894.39392,1637.80212,1724.62463,-0.02795,-0.0365,1.00076,-2.258,0.718,-0.543,6096,68285,102587
3.78,378,7222,1,0,0,0,847.54944,894.39392,1637.87842,1724.92981,-0.02808,-0.03504,1.00064,-2.118,0.683,-0.718,6090,68285,102578
3.79,379,7223,1,0,0,0,847.54944,894.39392,1637.95471,1724.92981,-0.02808,-0.03308,1.00076,-1.995,0.525,-0.595,6090,68285,102578
3.8,380,7224,1,0,0,0,847.32056,894.39392,1637.87842,1724.77722,-0.02661,-0.03479,0.99893,-2.118,0.56,-0.648,6086,68282,102569
3.81,381,7225,1,0,0,0,847.32056,894.39392,1637.72583,1725.0824,-0.02893,-0.03369,1.00015,-2.118,0.525,-0.77,6086,68282,102569
3.82,382,7226,1,0,0,0,847.32056,894.39392,1637.95471,1724.77722,-0.02747,-0.03015,0.99869,-1.838,0.508,-0.665,6081,68277,102563
3.83,383,7227,1,0,0,0,847.32056,894.39392,1637.87842,1724.92981,-0.02722,-0.02918,0.99918,-1.89,0.56,-0.648,6081,68277,102563
3.84,384,7228,1,0,0,0,847.32056,894.39392,1637.87842,1725.23499,-0.02734,-0.02954,0.99893,-2.24,0.648,-0.595,6076,68280,102561
3.85,385,7229,1,0,0,0,847.32056,894.31763,1638.48877,1725.31128,-0.0271,-0.03088,0.99881,-2.328,0.77,-0.595,6076,68280,102561
3.86,386,7230,1,0,0,0,847.32056,894.31763,1637.42065,1724.77722,-0.02747,-0.03223,1.00064,-2.485,0.665,-0.718,6071,68276,102553
3.87,387,7231,1,0,0,0,847.32056,894.31763,1637.49695,1725.31128,-0.02795,-0.03369,0.9982,-2.433,0.735,-0.77,6071,68276,102553
3.88,388,7232,1,0,0,0,847.32056,894.31763,1637.49695,1725.54016,-0.0282,-0.03247,0.99783,-2.17,0.683,-0.84,6068,68275,102550
3.89,389,7233,1,0,0,0,847.32056,894.31763,1637.49695,1724.92981,-0.02844,-0.03284,0.99918,-2.223,0.595,-0.648,6068,68275,102550
3.9,390,7234,1,0,0,0,847.32056,894.31763,1637.72583,1724.70093,-0.02832,-0.03259,0.9982,-2.153,0.718,-0.683,6067,68274,102548
3.91,391,7235,1,0,0,0,847.32056,894.31763,1637.34436,1724.77722,-0.02942,-0.03101,0.99905,-2.1,0.788,-0.578,6067,68274,102548
3.92,392,7236,1,0,0,0,847.32056,894.31763,1637.64954,1724.62463,-0.02954,-0.03101,0.99734,-2.363,0.77,-0.595,6066,68274,102545
3.93,393,7237,1,0,0,0,847.32056,894.31763,1638.41248,1724.70093,-0.02881,-0.02979,0.99771,-2.485,0.77,-0.578,6066,68274,102545
3.94,394,7238,1,0,0,0,847.32056,894.31763,1638.18359,1724.77722,-0.02808,-0.03003,0.99759,-2.503,0.84,-0.648,6065,68275,102546
3.95,395,7239,1,0,0,0,847.32056,894.01245,1638.33618,1724.70093,-0.02783,-0.02954,1.00003,-2.24,0.718,-0.525,6065,68275,102546
3.96,396,7240,1,0,0,0,847.32056,894.01245,1638.18359,1724.70093,-0.02722,-0.03113,0.99832,-2.363,0.7,-0.42,6065,68271,102546
3.97,397,7241,1,0,0,0,847.32056,894.01245,1638.18359,1724.77722,-0.02612,-0.03223,0.99869,-2.538,0.595,-0.49,6065,68271,102546
3.98,398,7242,1,0,0,0,847.32056,894.01245,1638.25989,1724.92981,-0.02673,-0.03406,1.0004,-2.695,0.753,-0.508,6063,68270,102544
3.99,399,7243,1,0,0,0,847.32056,894.01245,1638.41248,1724.70093,-0.0271,-0.03442,1.00076,-2.748,0.77,-0.63,6063,68270,102544
4.0,400,7244,1,0,0,0,847.54944,894.01245,1638.41248,1724.85352,-0.02673,-0.03333,0.99991,-2.363,0.788,-0.578,6066,68278,102551
4.01,401,7245,1,0,0,0,847.54944,894.01245,1637.95471,1724.62463,-0.0271,-0.03174,0.99905,-2.275,0.77,-0.63,6066,68278,102551
4.02,402,7246,1,0,0,0,847.54944,894.01245,1638.25989,1725.31128,-0.02795,-0.03027,0.99881,-2.31,0.683,-0.63,6067,68280,102552
4.03,403,7247,1,0,0,0,847.54944,894.01245,1638.18359,1724.70093,-0.02808,-0.03027,0.99686,-2.485,0.683,-0.665,6067,68280,102552
4.04,404,7248,1,0,0,0,847.54944,894.01245,1638.25989,1724.85352,-0.02869,-0.02979,0.99722,-2.45,0.648,-0.403,6069,68280,102555
4.05,405,7249,1,0,0,0,847.54944,894.24133,1638.25989,1725.46387,-0.02918,-0.02954,0.99698,-2.66,0.77,-0.385,6069,68280,102555
4.06,406,7250,1,0,0,0,847.54944,894.24133,1638.1073,1725.54016,-0.02808,-0.02966,0.99783,-2.66,0.805,-0.385,6067,68277,102558
4.07,407,7251,1,0,0,0,847.54944,894.24133,1638.18359,1724.85352,-0.02869,-0.03076,1.00089,-2.765,0.875,-0.455,6067,68277,102558
4.08,408,7252,1,0,0,0,847.54944,894.24133,1638.25989,1725.54016,-0.02918,-0.03357,1.00076,-2.783,0.84,-0.263,6067,68277,102559
4.09,409,7253,1,0,0,0,847.54944,894.24133,1638.33618,1724.70093,-0.0282,-0.03504,1.00027,-2.73,0.753,-0.263,6067,68277,102559
4.1,410,7254,1,0,0,0,847.70203,894.24133,1638.33618,1725.23499,-0.0282,-0.0332,1.0004,-2.59,0.7,-0.56,6071,68279,102560
4.11,411,7255,1,0,0,0,847.70203,894.24133,1638.18359,1725.0824,-0.02881,-0.03369,0.99942,-2.643,0.77,-0.543,6071,68279,102560
4.12,412,7256,1,0,0,0,847.70203,894.24133,1638.25989,1724.62463,-0.02954,-0.03137,0.99979,-2.52,0.718,-0.333,6071,68281,102561
4.13,413,7257,1,0,0,0,847.70203,894.24133,1638.33618,1724.92981,-0.02844,-0.03064,0.9993,-2.45,0.63,-0.438,6071,68281,102561
4.14,414,7258,1,0,0,0,847.70203,894.24133,1638.48877,1724.70093,-0.02759,-0.03186,0.99881,-2.45,0.718,-0.263,6076,68281,102563
4.15,415,7259,1,0,0,0,847.70203,894.01245,1638.25989,1724.62463,-0.02893,-0.03333,0.99966,-2.765,0.648,-0.368,6076,68281,102563
4.16,416,7260,1,0,0,0,847.70203,894.01245,1637.72583,1724.77722,-0.02832,-0.03577,0.99991,-2.888,0.788,-0.385,6075,68282,102567
4.17,417,7261,1,0,0,0,847.70203,894.01245,1637.80212,1724.70093,-0.02625,-0.03626,0.99722,-2.765,0.77,-0.298,6075,68282,102567
4.18,418,7262,1,0,0,0,847.70203,894.01245,1637.87842,1724.77722,-0.0282,-0.03369,0.99796,-2.713,0.77,-0.438,6077,68278,102568
4.19,419,7263,1,0,0,0,847.70203,894.01245,1637.80212,1724.70093,-0.0282,-0.03211,0.99869,-2.345,0.788,-0.56,6077,68278,102568
4.2,420,7264,1,0,0,0,847.54944,894.01245,1637.95471,1725.0824,-0.02747,-0.03064,0.99966,-2.398,0.683,-0.368,6077,68279,102569
4.21,421,7265,1,0,0,0,847.54944,894.01245,1638.18359,1725.0824,-0.02869,-0.0315,1.0004,-2.485,0.753,-0.49,6077,68279,102569
4.22,422,7266,1,0,0,0,847.54944,894.01245,1638.41248,1724.62463,-0.02783,-0.03247,1.00003,-2.45,0.77,-0.525,6082,68282,102576
4.23,423,7267,1,0,0,0,847.54944,894.01245,1638.64136,1724.54834,-0.02844,-0.03235,1.00064,-2.555,0.63,-0.49,6082,68282,102576
4.24,424,7268,1,0,0,0,847.54944,894.01245,1638.48877,1725.0061,-0.02661,-0.03418,1.0004,-2.52,0.56,-0.35,6082,68281,102580
4.25,425,7269,1,0,0,0,847.54944,894.39392,1638.41248,1725.31128,-0.02722,-0.03442,0.9982,-2.293,0.595,-0.613,6082,68281,102580
4.26,426,7270,1,0,0,0,847.54944,894.39392,1638.33618,1725.0824,-0.02783,-0.03223,0.99942,-2.223,0.683,-0.438,6082,68281,102580
4.27,427,7271,1,0,0,0,847.54944,894.39392,1638.48877,1725.23499,-0.02832,-0.03174,0.99905,-2.485,0.665,-0.49,6083,68281,102580
4.28,428,7272,1,0,0,0,847.54944,894.39392,1638.48877,1725.15869,-0.03015,-0.03113,1.00027,-2.24,0.683,-0.403,6083,68281,102580
4.29,429,7273,1,0,0,0,847.54944,894.39392,1638.87024,1724.54834,-0.02905,-0.03223,0.9982,-2.398,0.718,-0.385,6088,68283,102580
4.3,430,7274,1,0,0,0,847.70203,894.39392,1638.94653,1724.54834,-0.02881,-0.03308,0.99918,-2.38,0.63,-0.578,6092,68283,102583
4.31,431,7275,1,0,0,0,847.70203,894.39392,1637.72583,1724.54834,-0.02844,-0.03174,1.00003,-2.31,0.648,-0.368,6092,68283,102583
4.32,432,7276,1,0,0,0,847.70203,894.39392,1638.03101,1724.54834,-0.02844,-0.03125,1.00003,-2.31,0.648,-0.403,6092,68283,102583
4.33,433,7277,1,0,0,0,847.70203,894.39392,1637.95471,1724.62463,-0.0271,-0.03174,0.99734,-2.363,0.613,-0.56,6095,68283,102590
4.34,434,7278,1,0,0,0,847.70203,894.39392,1637.87842,1724.77722,-0.02734,-0.03125,0.99869,-2.31,0.578,-0.525,6095,68283,102590
4.35,435,7279,1,0,0,0,847.70203,893.93616,1638.1073,1724.54834,-0.02771,-0.03052,1.00064,-2.275,0.648,-0.42,6096,68286,102599
4.36,436,7280,1,0,0,0,847.70203,893.93616,1637.72583,1724.77722,-0.02783,-0.03052,0.99966,-2.52,0.823,-0.578,6096,68286,102599
4.37,437,7281,1,0,0,0,847.70203,893.93616,1637.87842,1724.62463,-0.02759,-0.03247,0.99966,-2.625,0.788,-0.525,6094,68289,102605
4.38,438,7282,1,0,0,0,847.70203,893.93616,1638.1073,1725.46387,-0.02686,-0.03565,1.00003,-2.52,0.735,-0.455,6094,68289,102605
4.39,439,7283,1,0,0,0,847.70203,893.93616,1637.87842,1724.70093,-0.02808,-0.03418,0.99991,-2.468,0.735,-0.385,6102,68285,102600
4.4,440,7284,1,0,0,0,847.54944,893.93616,1638.25989,1724.85352,-0.02771,-0.03162,0.99832,-2.31,0.858,-0.56,6103,68289,102609
4.41,441,7285,1,0,0,0,847.54944,893.93616,1637.95471,1724.92981,-0.02771,-0.03162,0.99832,-2.328,0.823,-0.56,6103,68289,102609
4.42,442,7286,1,0,0,0,847.54944,893.93616,1638.1073,1724.85352,-0.02942,-0.03259,0.99991,-2.52,0.735,-0.455,6103,68289,102609
4.43,443,7287,1,0,0,0,847.54944,893.93616,1638.25989,1724.62463,-0.03027,-0.03223,1.00076,-2.503,0.683,-0.508,6104,68290,102618
4.44,444,7288,1,0,0,0,847.54944,893.93616,1639.09912,1724.77722,-0.02905,-0.03357,0.99857,-2.678,0.858,-0.578,6104,68290,102618
4.45,445,7289,1,0,0,0,847.54944,894.08875,1639.55688,1725.0061,-0.02893,-0.03211,0.99893,-2.643,0.683,-0.578,6108,68294,102621
4.46,446,7290,1,0,0,0,847.54944,894.08875,1639.02283,1724.54834,-0.02783,-0.03259,0.99783,-2.625,0.63,-0.718,6108,68294,102621
4.47,447,7291,1,0,0,0,847.54944,894.08875,1639.328,1724.54834,-0.02783,-0.02991,1.0004,-2.345,0.648,-0.683,6111,68293,102623
4.48,448,7292,1,0,0,0,847.54944,894.08875,1639.4043,1724.54834,-0.02844,-0.03003,0.99979,-2.398,0.858,-0.683,6111,68293,102623
4.49,449,7293,1,0,0,0,847.54944,894.08875,1639.25171,1724.62463,-0.02747,-0.03064,0.99808,-2.66,0.84,-0.648,6110,68292,102631
4.5,450,7294,1,0,0,0,848.23608,894.08875,1639.328,1724.70093,-0.02661,-0.0293,0.99979,-2.643,0.665,-0.49,6115,68293,102636
4.51,451,7295,1,0,0,0,848.23608,894.08875,1639.17542,1724.62463,-0.02551,-0.0304,0.99966,-2.678,0.648,-0.385,6115,68293,102636
4.52,452,7296,1,0,0,0,848.23608,894.08875,1639.4043,1724.85352,-0.02857,-0.03284,1.00272,-2.905,0.805,-0.613,6115,68293,102636
4.53,453,7297,1,0,0,0,848.23608,894.08875,1639.4043,1725.23499,-0.02942,-0.03552,1.00052,-2.678,0.7,-0.298,6118,68297,102641
4.54,454,7298,1,0,0,0,848.23608,894.08875,1639.4043,1724.54834,-0.02857,-0.03442,0.99979,-2.398,0.595,-0.473,6118,68297,102641
4.55,455,7299,1,0,0,0,848.23608,894.08875,1639.328,1724.54834,-0.02747,-0.03198,0.99734,-2.17,0.648,-0.298,6122,68300,102645
4.56,456,7300,1,0,0,0,848.23608,894.08875,1639.17542,1724.54834,-0.02905,-0.02869,0.99673,-2.345,0.665,-0.473,6122,68300,102645
4.57,457,7301,1,0,0,0,848.23608,894.08875,1639.328,1724.62463,-0.03101,-0.03113,1.0004,-2.923,0.823,-0.49,6124,68300,102650
4.58,458,7302,1,0,0,0,848.23608,894.08875,1638.87024,1724.62463,-0.03113,-0.03516,1.00235,-2.853,0.893,-0.595,6124,68300,102650
4.59,459,7303,1,0,0,0,848.23608,894.08875,1639.02283,1724.62463,-0.02942,-0.03565,1.00015,-2.73,0.875,-0.84,6122,68299,102659
4.6,460,7304,1,0,0,0,847.93091,894.08875,1639.17542,1724.54834,-0.02881,-0.03565,0.99808,-2.45,0.613,-0.613,6125,68300,102659
4.61,461,7305,1,0,0,0,847.93091,894.08875,1638.71765,1724.70093,-0.02564,-0.03223,0.9971,-2.415,0.56,-0.735,6125,68300,102659
4.62,462,7306,1,0,0,0,847.93091,894.08875,1638.94653,1724.62463,-0.02222,-0.0282,0.99661,-2.468,0.56,-0.403,6125,68300,102659
4.63,463,7307,1,0,0,0,847.93091,894.08875,1638.87024,1724.62463,-0.02698,-0.02722,1.00003,-3.098,0.84,-0.228,6129,68299,102659
4.64,464,7308,1,0,0,0,847.93091,894.08875,1638.79395,1724.70093,-0.02747,-0.02881,1.00247,-2.993,0.963,-0.315,6129,68299,102659
4.65,465,7309,1,0,0,0,847.93091,893.93616,1639.02283,1724.54834,-0.0304,-0.02966,1.00565,-3.028,0.875,-0.438,6134,68304,102667
4.66,466,7310,1,0,0,0,847.93091,893.93616,1638.64136,1724.77722,-0.03015,-0.03198,1.00272,-2.853,0.735,-0.403,6134,68304,102667
4.67,467,7311,1,0,0,0,847.93091,893.93616,1638.94653,1724.77722,-0.0293,-0.03491,0.99722,-2.818,0.805,-0.35,6135,68301,102671
4.68,468,7312,1,0,0,0,847.93091,893.93616,1639.02283,1725.15869,-0.02478,-0.03528,0.99734,-2.678,0.578,-0.298,6135,68301,102671
4.69,469,7313,1,0,0,0,847.93091,893.93616,1638.87024,1724.77722,-0.02588,-0.03296,0.99796,-2.573,0.735,-0.263,6135,68299,102661
4.7,470,7314,1,0,0,0,848.0072,893.93616,1638.94653,1724.77722,-0.02698,-0.03259,0.99979,-2.765,0.84,-0.455,6135,68299,102661
4.71,471,7315,1,0,0,0,848.0072,893.93616,1638.87024,1724.54834,-0.03015,-0.03418,1.00198,-3.028,0.893,-0.578,6132,68303,102655
4.72,472,7316,1,0,0,0,848.0072,893.93616,1638.94653,1724.47205,-0.02979,-0.03674,0.99966,-2.905,0.7,-0.315,6132,68303,102655
4.73,473,7317,1,0,0,0,848.0072,893.93616,1638.94653,1724.47205,-0.02966,-0.03308,0.99661,-2.38,0.735,-0.648,6128,68302,102646
4.74,474,7318,1,0,0,0,848.0072,893.93616,1639.55688,1724.47205,-0.03162,-0.03125,0.99686,-2.258,0.875,-0.683,6128,68302,102646
4.75,475,7319,1,0,0,0,848.0072,894.01245,1639.17542,1725.0824,-0.03101,-0.03076,0.9971,-2.398,0.718,-0.578,6122,68302,102638
4.76,476,7320,1,0,0,0,848.0072,894.01245,1638.79395,1725.23499,-0.03015,-0.03137,0.99954,-2.713,0.7,-0.63,6122,68302,102638
4.77,477,7321,1,0,0,0,848.0072,894.01245,1639.02283,1725.0061,-0.02686,-0.03308,0.9993,-2.73,0.665,-0.508,6121,68296,102631
4.78,478,7322,1,0,0,0,848.0072,894.01245,1639.02283,1725.0061,-0.02686,-0.03284,0.99966,-2.643,0.7,-0.683,6121,68296,102631
4.79,479,7323,1,0,0,0,848.0072,894.01245,1639.02283,1724.70093,-0.02673,-0.03381,1.00003,-2.695,0.735,-0.613,6116,68294,102618
4.8,480,7324,1,0,0,0,848.0072,894.01245,1639.09912,1724.77722,-0.02649,-0.03479,1.00027,-2.853,0.753,-0.438,6116,68294,102618
4.81,481,7325,1,0,0,0,848.0072,894.01245,1639.02283,1724.85352,-0.02649,-0.03516,1.00101,-2.818,0.735,-0.56,6111,68296,102616
4.82,482,7326,1,0,0,0,848.0072,894.01245,1639.02283,1724.70093,-0.02673,-0.03369,1.00089,-2.87,0.683,-0.648,6111,68296,102616
4.83,483,7327,1,0,0,0,848.0072,894.01245,1639.09912,1724.54834,-0.02576,-0.03101,0.99771,-2.573,0.648,-0.56,6109,68295,102616
4.84,484,7328,1,0,0,0,848.0072,894.01245,1638.94653,1725.0061,-0.02637,-0.02966,0.99686,-2.713,0.718,-0.543,6109,68295,102616
4.85,485,7329,1,0,0,0,848.0072,894.24133,1639.17542,1725.0824,-0.02844,-0.02918,0.99783,-2.888,0.63,-0.543,6106,68295,102616
4.86,486,7330,1,0,0,0,848.0072,894.24133,1638.94653,1725.0824,-0.02747,-0.03101,1.00027,-3.15,0.753,-0.63,6106,68295,102616
4.87,487,7331,1,0,0,0,848.0072,894.24133,1638.87024,1724.77722,-0.02893,-0.0332,1.00235,-3.15,0.753,-0.473,6105,68293,102617
4.88,488,7332,1,0,0,0,848.0072,894.24133,1638.87024,1724.54834,-0.0293,-0.0332,1.00198,-3.045,0.613,-0.455,6105,68293,102617
4.89,489,7333,1,0,0,0,848.0072,894.24133,1638.94653,1724.54834,-0.02991,-0.03259,0.99759,-2.503,0.683,-0.543,6102,68292,102612
4.9,490,7334,1,0,0,0,847.85461,894.24133,1639.86206,1725.15869,-0.02795,-0.03223,0.99551,-2.45,0.7,-0.438,6102,68292,102612
4.91,491,7335,1,0,0,0,847.85461,894.24133,1638.71765,1724.70093,-0.02673,-0.03198,0.99747,-2.783,0.718,-0.683,6102,68291,102612
4.92,492,7336,1,0,0,0,847.85461,894.24133,1638.87024,1724.47205,-0.02649,-0.03394,0.99783,-2.748,0.718,-0.543,6102,68291,102612
4.93,493,7337,1,0,0,0,847.85461,894.24133,1639.02283,1725.0061,-0.02905,-0.03381,0.99991,-3.045,0.753,-0.77,6100,68291,102616
4.94,494,7338,1,0,0,0,847.85461,894.24133,1638.94653,1724.77722,-0.03027,-0.03235,1.00406,-2.573,0.735,-0.315,6100,68291,102616
4.95,495,7339,1,0,0,0,847.85461,894.01245,1639.17542,1724.54834,-0.02844,-0.03186,1.00027,-2.625,0.735,-0.315,6100,68288,102615
4.96,496,7340,1,0,0,0,847.85461,894.01245,1638.87024,1724.70093,-0.02722,-0.03076,0.99881,-2.608,0.56,-0.333,6100,68288,102615
4.97,497,7341,1,0,0,0,847.85461,894.01245,1639.02283,1724.47205,-0.02612,-0.03101,0.99478,-2.818,0.665,-0.49,6100,68288,102616
4.98,498,7342,1,0,0,0,847.85461,894.01245,1639.02283,1724.62463,-0.02783,-0.03223,0.99673,-2.993,0.788,-0.543,6100,68288,102616
4.99,499,7343,1,0,0,0,847.85461,894.01245,1639.17542,1724.62463,-0.0293,-0.03455,1.00101,-3.115,0.753,-0.525,6100,68287,102616
5.0,500,7344,1,0,0,0,848.0835,894.01245,1639.17542,1724.62463,-0.02857,-0.03516,1.00125,-3.168,0.84,-0.473,6100,68287,102616
5.01,501,7345,1,0,0,0,848.0835,894.01245,1639.25171,1724.77722,-0.0282,-0.03674,1.00137,-3.063,0.753,-0.77,6098,68291,102619
5.02,502,7346,1,0,0,0,848.0835,894.01245,1639.17542,1724.62463,-0.02747,-0.03735,1.00015,-2.905,0.77,-0.77,6098,68291,102619
5.03,503,7347,1,0,0,0,848.0835,894.01245,1639.09912,1724.54834,-0.03015,-0.03577,1.00101,-2.905,0.735,-0.578,6101,68291,102620
5.04,504,7348,1,0,0,0,848.0835,894.01245,1639.17542,1724.54834,-0.0271,-0.03357,0.99539,-2.52,0.735,-0.42,6101,68291,102620
5.05,505,7349,1,0,0,0,848.0835,894.01245,1639.93835,1724.62463,-0.02808,-0.03174,0.99356,-2.415,0.735,-0.525,6103,68296,102623
5.06,506,7350,1,0,0,0,848.0835,894.01245,1639.328,1724.47205,-0.02881,-0.02881,0.996,-2.625,0.753,-0.455,6103,68296,102623
5.07,507,7351,1,0,0,0,848.0835,894.01245,1639.63318,1724.54834,-0.02844,-0.02869,0.99881,-2.8,0.735,-0.438,6103,68292,102625
5.08,508,7352,1,0,0,0,848.0835,894.01245,1639.55688,1724.54834,-0.03003,-0.03162,1.0015,-3.063,0.823,-0.35,6103,68292,102625
5.09,509,7353,1,0,0,0,848.0835,894.01245,1639.55688,1724.54834,-0.02966,-0.03394,1.00235,-3.203,1.015,-0.385,6106,68295,102629
5.1,510,7354,1,0,0,0,848.23608,894.01245,1639.55688,1724.39575,-0.02783,-0.03723,1.00015,-2.94,0.718,-0.28,6106,68295,102629
5.11,511,7355,1,0,0,0,848.23608,894.01245,1639.48059,1724.62463,-0.02747,-0.03772,0.99979,-2.853,0.7,-0.403,6107,68294,102630
5.12,512,7356,1,0,0,0,848.23608,894.01245,1639.55688,1724.54834,-0.02734,-0.03601,1.00003,-2.905,0.7,-0.56,6107,68294,102630
5.13,513,7357,1,0,0,0,848.23608,894.01245,1639.63318,1724.62463,-0.02673,-0.03565,0.99783,-2.52,0.7,-0.438,6110,68294,102630
5.14,514,7358,1,0,0,0,848.23608,894.01245,1639.55688,1724.62463,-0.0282,-0.03186,0.99661,-2.485,0.718,-0.368,6110,68294,102630
5.15,515,7359,1,0,0,0,848.23608,894.01245,1639.55688,1724.39575,-0.03076,-0.03076,0.99722,-2.888,0.823,-0.49,6113,68293,102634
5.16,516,7360,1,0,0,0,848.23608,894.01245,1639.328,1724.62463,-0.03088,-0.03259,0.99893,-3.168,0.963,-0.508,6113,68293,102634
5.17,517,7361,1,0,0,0,848.23608,894.01245,1639.48059,1724.54834,-0.03052,-0.03418,0.99881,-3.395,0.893,-0.438,6112,68293,102639
5.18,518,7362,1,0,0,0,848.23608,894.01245,1639.48059,1724.54834,-0.0282,-0.03735,0.99844,-3.238,0.858,-0.49,6112,68293,102639
5.19,519,7363,1,0,0,0,848.23608,894.01245,1639.70947,1724.47205,-0.02844,-0.03662,1.00003,-3.08,0.91,-0.333,6114,68297,102643
5.2,520,7364,1,0,0,0,848.23608,894.01245,1639.78577,1724.47205,-0.02783,-0.03723,1.00015,-2.87,1.015,-0.543,6114,68297,102643
5.21,521,7365,1,0,0,0,848.23608,894.01245,1639.328,1724.47205,-0.0293,-0.03858,1.00027,-2.503,0.91,-0.578,6117,68296,102651
5.22,522,7366,1,0,0,0,848.23608,894.01245,1639.4043,1724.47205,-0.02905,-0.03894,1.00247,-1.978,0.665,-0.49,6117,68296,102651
5.23,523,7367,1,0,0,0,848.23608,894.01245,1639.4043,1724.39575,-0.02795,-0.03723,1.00259,-1.488,0.525,-0.315,6121,68294,102649
5.24,524,7368,1,0,0,0,848.23608,894.01245,1639.4043,1724.39575,-0.0282,-0.03357,1.00125,-1.138,0.455,-0.473,6121,68294,102649
5.25,525,7369,1,0,0,0,848.23608,893.93616,1639.48059,1724.54834,-0.02844,-0.03284,0.99893,-1.313,0.368,-0.42,6122,68296,102652
5.26,526,7370,1,0,0,0,848.23608,893.93616,1639.25171,1724.31946,-0.02698,-0.03565,0.99759,-1.453,0.385,-0.438,6122,68296,102652
5.27,527,7371,1,0,0,0,848.23608,893.93616,1639.55688,1724.39575,-0.02918,-0.03662,0.99661,-1.54,0.56,-0.525,6124,68295,102654
5.28,528,7372,1,0,0,0,848.23608,893.93616,1639.48059,1724.39575,-0.02869,-0.03601,0.9971,-1.558,0.525,-0.578,6124,68295,102654
5.29,529,7373,1,0,0,0,848.23608,893.93616,1639.4043,1724.31946,-0.02954,-0.03272,0.99905,-1.523,0.543,-0.683,6128,68296,102659
5.3,530,7374,1,0,0,0,848.23608,893.93616,1639.48059,1724.47205,-0.02771,-0.02844,0.99832,-2.065,0.613,-0.648,6128,68296,102659
5.31,531,7375,1,0,0,0,848.23608,893.93616,1639.4043,1724.47205,-0.02869,-0.02673,0.99869,-2.38,0.683,-0.508,6127,68302,102669
5.32,532,7376,1,0,0,0,848.23608,893.93616,1639.48059,1724.47205,-0.026,-0.0282,0.99844,-2.45,0.595,-0.368,6127,68302,102669
5.33,533,7377,1,0,0,0,848.23608,893.93616,1639.4043,1724.70093,-0.02783,-0.03027,0.99759,-2.818,0.718,-0.315,6131,68298,102666
5.34,534,7378,1,0,0,0,848.23608,893.93616,1639.55688,1724.47205,-0.02771,-0.03211,0.99698,-3.063,0.718,-0.403,6131,68298,102666
5.35,535,7379,1,0,0,0,848.23608,893.93616,1639.70947,1724.54834,-0.02832,-0.03369,0.9993,-3.098,0.77,-0.368,6132,68296,102667
5.36,536,7380,1,0,0,0,848.23608,893.93616,1639.17542,1724.54834,-0.02857,-0.03345,1.0015,-3.115,0.683,-0.35,6132,68296,102667
5.37,537,7381,1,0,0,0,848.23608,893.93616,1639.48059,1724.54834,-0.02734,-0.03552,1.00113,-3.045,0.735,-0.333,6135,68297,102680
5.38,538,7382,1,0,0,0,848.23608,893.93616,1639.328,1724.47205,-0.02869,-0.03381,1.00064,-3.063,0.753,-0.245,6135,68297,102680
5.39,539,7383,1,0,0,0,848.23608,893.93616,1639.25171,1724.54834,-0.02734,-0.03479,0.99905,-2.975,0.683,-0.35,6137,68300,102684
5.4,540,7384,1,0,0,0,848.15979,893.93616,1639.48059,1724.54834,-0.0282,-0.03272,0.99869,-2.59,0.7,-0.298,6137,68300,102684
5.41,541,7385,1,0,0,0,848.15979,893.93616,1639.25171,1724.54834,-0.02673,-0.03198,0.99747,-2.73,0.753,-0.438,6140,68299,102690
5.42,542,7386,1,0,0,0,848.15979,893.93616,1639.17542,1724.47205,-0.02722,-0.03381,0.99637,-2.888,0.805,-0.298,6140,68299,102690
5.43,543,7387,1,0,0,0,848.15979,893.93616,1639.4043,1724.47205,-0.02857,-0.03345,0.99991,-2.923,0.683,-0.263,6143,68296,102693
5.44,544,7388,1,0,0,0,848.15979,893.93616,1639.328,1725.0061,-0.02942,-0.0354,1.00015,-2.958,0.77,-0.245,6143,68296,102693
5.45,545,7389,1,0,0,0,848.15979,894.01245,1639.63318,1725.0824,-0.02966,-0.03638,0.99991,-2.678,0.7,-0.403,6146,68300,102703
5.46,546,7390,1,0,0,0,848.15979,894.01245,1639.4043,1724.77722,-0.02857,-0.03613,0.99881,-2.748,0.648,-0.438,6146,68300,102703
5.47,547,7391,1,0,0,0,848.15979,894.01245,1639.55688,1724.54834,-0.02698,-0.0365,0.9971,-2.555,0.7,-0.35,6148,68302,102705
5.48,548,7392,1,0,0,0,848.15979,894.01245,1639.48059,1724.54834,-0.02783,-0.03528,0.99747,-2.433,0.77,-0.245,6148,68302,102705
5.49,549,7393,1,0,0,0,848.15979,894.01245,1639.70947,1724.47205,-0.0282,-0.03296,0.99905,-2.38,0.753,-0.298,6150,68300,102711
5.5,550,7394,1,0,0,0,848.31238,894.01245,1639.86206,1724.62463,-0.02722,-0.03211,1.00015,-2.608,0.805,-0.385,6150,68300,102711
5.51,551,7395,1,0,0,0,848.31238,894.01245,1639.4043,1724.47205,-0.02661,-0.03259,1.00052,-2.73,0.735,-0.298,6154,68300,102719
5.52,552,7396,1,0,0,0,848.31238,894.01245,1639.55688,1724.47205,-0.02844,-0.03333,1.00027,-2.485,0.735,-0.245,6154,68300,102719
5.53,553,7397,1,0,0,0,848.31238,894.01245,1639.55688,1724.54834,-0.02759,-0.0332,0.99918,-2.538,0.735,-0.21,6154,68303,102727
5.54,554,7398,1,0,0,0,848.31238,894.01245,1639.48059,1724.47205,-0.02625,-0.03272,0.99771,-2.835,0.648,-0.193,6154,68303,102727
5.55,555,7399,1,0,0,0,848.31238,893.93616,1639.48059,1724.39575,-0.02661,-0.03528,0.99686,-2.73,0.613,-0.053,6156,68307,102732
5.56,556,7400,1,0,0,0,848.31238,893.93616,1639.328,1724.70093,-0.02661,-0.03528,0.99759,-2.818,0.718,-0.053,6156,68307,102732
5.57,557,7401,1,0,0,0,848.31238,893.93616,1639.48059,1724.39575,-0.02942,-0.03626,0.99893,-2.87,0.788,-0.14,6160,68309,102735
5.58,558,7402,1,0,0,0,848.31238,893.93616,1639.4043,1724.39575,-0.02869,-0.03723,0.99905,-2.678,0.788,-0.035,6160,68309,102735
5.59,559,7403,1,0,0,0,848.31238,893.93616,1639.48059,1724.77722,-0.02979,-0.03711,1.00015,-2.45,0.788,-0.193,6165,68308,102739
5.6,560,7404,1,0,0,0,848.15979,893.93616,1639.48059,1724.77722,-0.03162,-0.03552,1.00064,-2.45,0.753,-0.455,6165,68308,102739
5.61,561,7405,1,0,0,0,848.15979,893.93616,1638.94653,1724.39575,-0.0304,-0.03491,0.99954,-2.45,0.788,-0.21,6165,68310,102747
5.62,562,7406,1,0,0,0,848.15979,893.93616,1639.4043,1724.77722,-0.02759,-0.03101,0.99954,-2.573,0.77,-0.21,6165,68310,102747
5.63,563,7407,1,0,0,0,848.15979,893.93616,1639.48059,1724.47205,-0.0271,-0.03137,0.99893,-2.73,0.718,-0.228,6168,68309,102753
5.64,564,7408,1,0,0,0,848.15979,893.93616,1639.55688,1724.47205,-0.0282,-0.03211,0.99991,-2.73,0.648,-0.193,6168,68309,102753
5.65,565,7409,1,0,0,0,848.15979,893.93616,1640.01465,1724.31946,-0.0304,-0.03467,1.00125,-2.87,0.788,-0.298,6177,68315,102759
5.66,566,7410,1,0,0,0,848.15979,893.93616,1639.02283,1724.54834,-0.03101,-0.03784,1.00235,-2.8,0.823,-0.49,6177,68315,102759
5.67,567,7411,1,0,0,0,848.15979,893.93616,1639.4043,1724.39575,-0.03125,-0.03992,0.99905,-2.415,0.7,-0.508,6174,68315,102763
5.68,568,7412,1,0,0,0,848.15979,893.93616,1639.328,1724.39575,-0.02954,-0.03882,0.99759,-2.1,0.56,-0.56,6174,68315,102763
5.69,569,7413,1,0,0,0,848.15979,893.93616,1639.328,1724.47205,-0.026,-0.03613,0.99661,-1.803,0.525,-0.473,6176,68314,102758
5.7,570,7414,1,0,0,0,848.15979,893.93616,1639.4043,1724.47205,-0.02551,-0.03198,0.99979,-1.68,0.578,-0.438,6176,68314,102758
5.71,571,7415,1,0,0,0,848.15979,893.93616,1639.17542,1724.70093,-0.0282,-0.03211,1.00455,-1.873,0.7,-0.298,6173,68314,102753
5.72,572,7416,1,0,0,0,848.15979,893.93616,1639.4043,1724.31946,-0.02869,-0.03467,1.00198,-2.1,0.56,-0.385,6173,68314,102753
5.73,573,7417,1,0,0,0,848.15979,893.93616,1639.4043,1724.85352,-0.02832,-0.03674,0.99771,-1.925,0.665,-0.403,6171,68315,102753
5.74,574,7418,1,0,0,0,848.15979,893.93616,1639.328,1725.0824,-0.02905,-0.03516,0.99637,-1.82,0.7,-0.49,6171,68315,102753
5.75,575,7419,1,0,0,0,848.15979,894.16504,1639.25171,1725.0061,-0.03015,-0.0332,0.99661,-1.75,0.718,-0.403,6166,68314,102744
5.76,576,7420,1,0,0,0,848.15979,894.16504,1639.25171,1724.31946,-0.03064,-0.03442,0.99771,-1.943,0.648,-0.438,6166,68314,102744
5.77,577,7421,1,0,0,0,848.15979,894.16504,1639.328,1724.31946,-0.03076,-0.03699,1.00052,-2.188,0.665,-0.648,6165,68311,102741
5.78,578,7422,1,0,0,0,848.15979,894.16504,1639.25171,1724.24316,-0.02991,-0.03723,1.00247,-2.03,0.56,-0.613,6165,68311,102741
5.79,579,7423,1,0,0,0,848.15979,894.16504,1639.4043,1724.31946,-0.02734,-0.03723,0.99783,-1.768,0.525,-0.753,6165,68312,102748
5.8,580,7424,1,0,0,0,848.15979,894.16504,1640.01465,1724.54834,-0.02881,-0.0343,0.99673,-1.593,0.525,-0.753,6165,68312,102748
5.81,581,7425,1,0,0,0,848.15979,894.16504,1639.328,1724.47205,-0.02783,-0.03455,0.99478,-1.593,0.56,-0.718,6163,68312,102743
5.82,582,7426,1,0,0,0,848.15979,894.16504,1639.328,1724.39575,-0.02857,-0.03198,0.9971,-1.733,0.7,-0.805,6163,68312,102743
5.83,583,7427,1,0,0,0,848.15979,894.16504,1639.4043,1724.47205,-0.02808,-0.03333,1.00003,-2.153,0.648,-0.84,6162,68312,102735
5.84,584,7428,1,0,0,0,848.15979,894.16504,1639.48059,1724.39575,-0.02661,-0.03357,0.99991,-2.065,0.578,-0.84,6162,68312,102735
5.85,585,7429,1,0,0,0,848.15979,893.85986,1639.48059,1724.31946,-0.02686,-0.03113,1.00089,-1.89,0.595,-0.84,6159,68313,102736
5.86,586,7430,1,0,0,0,848.15979,893.85986,1639.09912,1724.70093,-0.02686,-0.02991,1.00211,-1.663,0.63,-0.893,6159,68313,102736
5.87,587,7431,1,0,0,0,848.15979,893.85986,1639.25171,1724.39575,-0.0271,-0.03211,1.00101,-1.838,0.595,-0.928,6158,68305,102740
5.88,588,7432,1,0,0,0,848.15979,893.85986,1639.328,1724.39575,-0.02771,-0.03504,0.99796,-1.925,0.595,-0.84,6158,68305,102740
5.89,589,7433,1,0,0,0,848.15979,893.85986,1639.25171,1724.54834,-0.02918,-0.03198,0.99991,-1.68,0.595,-0.91,6158,68310,102736
5.9,590,7434,1,0,0,0,848.0835,893.85986,1639.328,1724.47205,-0.02844,-0.03186,0.99869,-1.75,0.595,-0.91,6158,68310,102736
5.91,591,7435,1,0,0,0,848.0835,893.85986,1639.25171,1724.39575,-0.02991,-0.03088,0.99979,-1.698,0.578,-0.788,6155,68309,102734
5.92,592,7436,1,0,0,0,848.0835,893.85986,1639.25171,1724.54834,-0.02783,-0.03223,0.99808,-1.908,0.63,-0.63,6155,68309,102734
5.93,593,7437,1,0,0,0,848.0835,893.85986,1639.25171,1724.47205,-0.02942,-0.02954,0.99869,-1.978,0.648,-0.805,6156,68306,102735
5.94,594,7438,1,0,0,0,848.0835,893.85986,1639.328,1724.39575,-0.02795,-0.0293,0.99869,-1.995,0.665,-0.665,6156,68306,102735
5.95,595,7439,1,0,0,0,848.0835,893.78357,1639.55688,1724.54834,-0.02551,-0.0304,0.9971,-1.89,0.595,-0.648,6158,68304,102740
5.96,596,7440,1,0,0,0,848.0835,893.78357,1639.02283,1724.39575,-0.02661,-0.03076,0.99661,-1.873,0.788,-0.613,6158,68304,102740
5.97,597,7441,1,0,0,0,848.0835,893.78357,1639.328,1724.47205,-0.0282,-0.0304,1.00015,-2.03,0.735,-0.595,6157,68309,102738
5.98,598,7442,1,0,0,0,848.0835,893.78357,1639.17542,1724.54834,-0.02661,-0.03284,1.00027,-2.188,0.665,-0.753,6157,68309,102738
5.99,599,7443,1,0,0,0,848.0835,893.78357,1639.328,1724.39575,-0.02673,-0.03308,1.00015,-2.153,0.63,-0.875,6159,68307,102740
6.0,600,7444,1,0,0,0,848.23608,893.78357,1639.4043,1724.39575,-0.02576,-0.03198,1.00027,-1.925,0.63,-0.858,6159,68307,102740
6.01,601,7445,1,0,0,0,848.23608,893.78357,1639.328,1724.39575,-0.02649,-0.03101,0.99991,-1.855,0.683,-0.77,6159,68305,102738
6.02,602,7446,1,0,0,0,848.23608,893.78357,1639.4043,1725.0824,-0.02747,-0.02783,1.00027,-1.645,0.665,-0.858,6159,68305,102738
6.03,603,7447,1,0,0,0,848.23608,893.78357,1639.4043,1724.92981,-0.02771,-0.0282,0.99808,-1.768,0.578,-0.665,6159,68302,102740
6.04,604,7448,1,0,0,0,848.23608,893.78357,1639.4043,1725.15869,-0.02698,-0.02832,0.99649,-2.013,0.595,-0.595,6159,68302,102740
6.05,605,7449,1,0,0,0,848.23608,894.24133,1639.4043,1724.92981,-0.02832,-0.02686,0.99783,-2.135,0.648,-0.578,6158,68310,102742
6.06,606,7450,1,0,0,0,848.23608,894.24133,1639.70947,1724.92981,-0.02551,-0.02698,0.99673,-2.24,0.648,-0.578,6158,68310,102742
6.07,607,7451,1,0,0,0,848.23608,894.24133,1639.48059,1724.39575,-0.02673,-0.0282,0.99893,-2.293,0.648,-0.473,6162,68307,102743
6.08,608,7452,1,0,0,0,848.23608,894.24133,1639.328,1724.39575,-0.02771,-0.03174,0.99991,-2.555,0.735,-0.56,6162,68307,102743
6.09,609,7453,1,0,0,0,848.23608,894.24133,1639.55688,1724.85352,-0.02722,-0.03235,1.00162,-2.38,0.63,-0.473,6164,68313,102748
6.1,610,7454,1,0,0,0,848.23608,894.24133,1639.63318,1724.77722,-0.02795,-0.03101,1.00223,-2.223,0.578,-0.473,6164,68313,102748
6.11,611,7455,1,0,0,0,848.23608,894.24133,1639.328,1724.77722,-0.02722,-0.0315,0.99942,-2.083,0.56,-0.35,6163,68308,102748
6.12,612,7456,1,0,0,0,848.23608,894.24133,1639.48059,1724.85352,-0.02869,-0.02966,0.99759,-2.188,0.648,-0.438,6163,68308,102748
6.13,613,7457,1,0,0,0,848.23608,894.24133,1639.48059,1724.77722,-0.03003,-0.02808,0.99905,-2.153,0.665,-0.525,6164,68308,102752
6.14,614,7458,1,0,0,0,848.23608,894.24133,1639.4043,1724.54834,-0.02942,-0.02991,1.00003,-2.1,0.788,-0.28,6164,68308,102752
6.15,615,7459,1,0,0,0,848.23608,893.85986,1639.48059,1724.24316,-0.02905,-0.02905,0.99857,-2.1,0.665,-0.333,6169,68306,102754
6.16,616,7460,1,0,0,0,848.23608,893.85986,1638.94653,1724.39575,-0.02979,-0.02832,1.00125,-2.153,0.613,-0.368,6169,68306,102754
6.17,617,7461,1,0,0,0,848.23608,893.85986,1639.4043,1724.39575,-0.02771,-0.03015,1.00174,-2.24,0.63,-0.49,6170,68308,102757
6.18,618,7462,1,0,0,0,848.23608,893.85986,1639.328,1724.31946,-0.02857,-0.03125,1.00247,-2.345,0.543,-0.42,6170,68308,102757
6.19,619,7463,1,0,0,0,848.23608,893.85986,1639.328,1724.31946,-0.02515,-0.03198,0.99857,-1.908,0.543,-0.263,6172,68306,102762
6.2,620,7464,1,0,0,0,848.23608,893.85986,1639.48059,1724.31946,-0.02551,-0.03015,0.99771,-1.785,0.56,-0.403,6172,68306,102762
6.21,621,7465,1,0,0,0,848.23608,893.85986,1639.25171,1724.16687,-0.02759,-0.02893,0.99893,-1.855,0.56,-0.28,6175,68308,102765
6.22,622,7466,1,0,0,0,848.23608,893.85986,1639.4043,1724.24316,-0.02795,-0.02881,0.99808,-2.1,0.648,-0.49,6175,68308,102765
6.23,623,7467,1,0,0,0,848.23608,893.85986,1639.4043,1724.77722,-0.02979,-0.02966,1.00027,-2.03,0.578,-0.49,6175,68307,102769
6.24,624,7468,1,0,0,0,848.23608,893.85986,1639.4043,1724.31946,-0.0282,-0.03076,1.00003,-1.925,0.525,-0.525,6175,68307,102769
6.25,625,7469,1,0,0,0,848.23608,893.85986,1639.63318,1724.16687,-0.02942,-0.03076,0.99942,-1.61,0.578,-0.578,6177,68308,102773
6.26,626,7470,1,0,0,0,848.23608,893.85986,1639.09912,1724.09058,-0.02905,-0.03076,0.99771,-1.68,0.543,-0.525,6177,68308,102773
6.27,627,7471,1,0,0,0,848.23608,893.85986,1639.48059,1724.09058,-0.02783,-0.02991,0.99771,-1.435,0.56,-0.543,6179,68307,102771
6.28,628,7472,1,0,0,0,848.23608,893.85986,1639.328,1724.77722,-0.02722,-0.03027,0.99905,-1.295,0.543,-0.543,6179,68307,102771
6.29,629,7473,1,0,0,0,848.23608,893.85986,1639.4043,1724.47205,-0.02661,-0.02783,0.9982,-1.208,0.543,-0.56,6179,68307,102771
6.3,630,7474,1,0,0,0,848.23608,893.85986,1639.25171,1724.24316,-0.02637,-0.0238,1.00052,-1.575,0.63,-0.473,6180,68309,102779
6.31,631,7475,1,0,0,0,848.23608,893.85986,1639.17542,1724.92981,-0.02564,-0.02454,1.00015,-1.838,0.595,-0.368,6180,68309,102779
6.32,632,7476,1,0,0,0,848.23608,893.85986,1639.4043,1724.70093,-0.02722,-0.02673,1.0015,-2.17,0.595,-0.49,6181,68307,102783
6.33,633,7477,1,0,0,0,848.23608,893.85986,1639.4043,1724.85352,-0.02612,-0.0282,1.00052,-2.1,0.56,-0.508,6181,68307,102783
6.34,634,7478,1,0,0,0,848.23608,893.85986,1639.4043,1724.85352,-0.02576,-0.02686,1.00003,-2.013,0.543,-0.525,6185,68307,102783
6.35,635,7479,1,0,0,0,848.23608,894.16504,1639.4043,1724.31946,-0.02612,-0.02649,0.99783,-2.17,0.613,-0.315,6186,68311,102789
6.36,636,7480,1,0,0,0,848.23608,894.16504,1639.17542,1724.31946,-0.02576,-0.02844,0.99698,-2.328,0.753,-0.49,6186,68311,102789
6.37,637,7481,1,0,0,0,848.23608,894.16504,1639.25171,1724.31946,-0.02857,-0.0282,1.00052,-2.398,0.805,-0.42,6186,68311,102789
6.38,638,7482,1,0,0,0,848.23608,894.16504,1639.17542,1724.54834,-0.02759,-0.02783,0.99893,-2.31,0.823,-0.508,6189,68309,102791
6.39,639,7483,1,0,0,0,848.23608,894.16504,1639.328,1724.31946,-0.02808,-0.02795,0.99881,-2.275,0.753,-0.56,6189,68309,102791
6.4,640,7484,1,0,0,0,848.0835,894.16504,1640.16724,1724.24316,-0.02832,-0.0271,1.00052,-2.415,0.77,-0.665,6189,68313,102792
6.41,641,7485,1,0,0,0,848.0835,894.16504,1639.02283,1724.24316,-0.02893,-0.02832,1.00101,-2.328,0.683,-0.35,6189,68313,102792
6.42,642,7486,1,0,0,0,848.0835,894.16504,1639.328,1724.31946,-0.02869,-0.02857,1.00015,-2.503,0.753,-0.455,6194,68314,102798
6.43,643,7487,1,0,0,0,848.0835,894.16504,1639.25171,1724.39575,-0.02795,-0.02905,0.99966,-2.468,0.7,-0.718,6194,68314,102798
6.44,644,7488,1,0,0,0,848.0835,894.16504,1639.17542,1724.16687,-0.02612,-0.02747,0.99844,-2.275,0.665,-0.56,6194,68306,102794
6.45,645,7489,1,0,0,0,848.0835,893.78357,1639.4043,1724.16687,-0.02686,-0.026,1.00015,-2.52,0.735,-0.56,6196,68312,102801
6.46,646,7490,1,0,0,0,848.0835,893.78357,1638.87024,1724.47205,-0.02808,-0.02576,1.0004,-2.608,0.788,-0.578,6196,68312,102801
6.47,647,7491,1,0,0,0,848.0835,893.78357,1639.328,1724.70093,-0.02844,-0.02661,1.00003,-2.625,0.77,-0.543,6196,68312,102801
6.48,648,7492,1,0,0,0,848.0835,893.78357,1639.4043,1724.24316,-0.02661,-0.02844,0.99857,-2.468,0.718,-0.28,6194,68312,102803
6.49,649,7493,1,0,0,0,848.0835,893.78357,1639.328,1724.24316,-0.02478,-0.02625,0.99881,-2.415,0.735,-0.385,6194,68312,102803
6.5,650,7494,1,0,0,0,848.23608,893.78357,1639.48059,1724.62463,-0.02673,-0.02783,1.00027,-2.573,0.665,-0.473,6197,68313,102806
6.51,651,7495,1,0,0,0,848.23608,893.78357,1639.25171,1724.16687,-0.0271,-0.02844,1.00113,-2.468,0.665,-0.385,6197,68313,102806
6.52,652,7496,1,0,0,0,848.23608,893.78357,1639.328,1724.24316,-0.02832,-0.02857,1.00113,-2.345,0.683,-0.368,6205,68315,102811
6.53,653,7497,1,0,0,0,848.23608,893.78357,1639.4043,1724.24316,-0.02747,-0.02808,0.99759,-2.31,0.648,-0.315,6205,68315,102811
6.54,654,7498,1,0,0,0,848.23608,893.78357,1639.09912,1724.70093,-0.02734,-0.02783,0.99747,-2.398,0.613,-0.508,6202,68312,102813
6.55,655,7499,1,0,0,0,848.23608,894.01245,1639.17542,1724.77722,-0.02918,-0.02759,0.99954,-2.433,0.683,-0.49,6207,68316,102815
6.56,656,7500,1,0,0,0,848.23608,894.01245,1638.56506,1724.62463,-0.02881,-0.02673,0.9993,-2.45,0.735,-0.455,6207,68316,102815
6.57,657,7501,1,0,0,0,848.23608,894.01245,1638.87024,1724.54834,-0.0282,-0.02905,0.99808,-2.433,0.788,-0.473,6207,68316,102815
6.58,658,7502,1,0,0,0,848.23608,894.01245,1639.02283,1724.47205,-0.02832,-0.02954,0.99991,-2.293,0.718,-0.438,6209,68318,102821
6.59,659,7503,1,0,0,0,848.23608,894.01245,1639.4043,1724.70093,-0.02857,-0.02881,1.00015,-2.345,0.648,-0.56,6209,68318,102821
6.6,660,7504,1,0,0,0,848.15979,894.01245,1639.4043,1724.54834,-0.02588,-0.02673,0.99771,-2.17,0.648,-0.718,6210,68318,102823
6.61,661,7505,1,0,0,0,848.15979,894.01245,1639.02283,1724.92981,-0.02612,-0.02527,0.99808,-2.293,0.665,-0.578,6210,68318,102823
6.62,662,7506,1,0,0,0,848.15979,894.01245,1639.328,1724.47205,-0.02356,-0.02307,0.99698,-2.363,0.683,-0.665,6213,68314,102825
6.63,663,7507,1,0,0,0,848.15979,894.01245,1638.71765,1724.47205,-0.02515,-0.02161,0.99893,-2.555,0.84,-0.543,6213,68314,102825
6.64,664,7508,1,0,0,0,848.15979,894.01245,1638.79395,1724.47205,-0.02478,-0.02441,1.00052,-2.853,0.805,-0.49,6212,68315,102826
6.65,665,7509,1,0,0,0,848.15979,894.16504,1639.25171,1724.70093,-0.02844,-0.03186,1.00113,-2.678,0.788,-0.525,6212,68315,102826
6.66,666,7510,1,0,0,0,848.15979,894.16504,1639.328,1724.62463,-0.03027,-0.03064,0.99966,-2.433,0.823,-0.455,6215,68313,102822
6.67,667,7511,1,0,0,0,848.15979,894.16504,1639.328,1724.77722,-0.02722,-0.0293,0.99722,-1.995,0.63,-0.21,6215,68313,102822
6.68,668,7512,1,0,0,0,848.15979,894.16504,1639.328,1724.31946,-0.026,-0.02771,0.99844,-1.89,0.578,-0.403,6218,68314,102822
6.69,669,7513,1,0,0,0,848.15979,894.16504,1639.48059,1724.31946,-0.02429,-0.0271,0.99954,-1.82,0.613,-0.648,6218,68314,102822
6.7,670,7514,1,0,0,0,848.15979,894.16504,1639.55688,1724.54834,-0.02698,-0.02795,1.00052,-2.013,0.648,-0.525,6217,68309,102809
6.71,671,7515,1,0,0,0,848.15979,894.16504,1639.09912,1724.31946,-0.02698,-0.02857,1.00052,-2.135,0.665,-0.648,6217,68309,102809
6.72,672,7516,1,0,0,0,848.15979,894.16504,1639.328,1724.47205,-0.02857,-0.02686,0.99966,-1.995,0.56,-0.543,6212,68308,102801
6.73,673,7517,1,0,0,0,848.15979,894.16504,1639.17542,1724.31946,-0.02893,-0.02588,0.99869,-1.943,0.7,-0.648,6212,68308,102801
6.74,674,7518,1,0,0,0,848.15979,894.16504,1639.25171,1724.54834,-0.02832,-0.0249,0.99625,-2.083,0.683,-0.56,6209,68302,102788
6.75,675,7519,1,0,0,0,848.15979,893.85986,1639.328,1724.24316,-0.02869,-0.02503,0.99771,-2.223,0.753,-0.455,6209,68302,102788
6.76,676,7520,1,0,0,0,848.15979,893.85986,1639.25171,1724.09058,-0.02844,-0.02734,0.99979,-2.328,0.683,-0.263,6204,68301,102785
6.77,677,7521,1,0,0,0,848.15979,893.85986,1639.328,1724.09058,-0.02795,-0.02857,0.99979,-2.345,0.665,-0.648,6204,68301,102785
6.78,678,7522,1,0,0,0,848.15979,893.85986,1639.4043,1724.01428,-0.02734,-0.02747,1.00015,-2.205,0.595,-0.385,6201,68298,102778
6.79,679,7523,1,0,0,0,848.15979,893.85986,1639.4043,1724.16687,-0.02576,-0.02722,0.99905,-1.995,0.543,-0.543,6201,68298,102778
6.8,680,7524,1,0,0,0,848.23608,893.85986,1639.4043,1724.16687,-0.02686,-0.02722,0.99979,-1.873,0.525,-0.753,6201,68298,102771
6.81,681,7525,1,0,0,0,848.23608,893.85986,1639.17542,1724.01428,-0.02747,-0.02612,0.99991,-1.838,0.525,-0.665,6201,68298,102771
6.82,682,7526,1,0,0,0,848.23608,893.85986,1639.328,1724.24316,-0.02686,-0.02539,0.99832,-1.978,0.56,-0.683,6197,68294,102768
6.83,683,7527,1,0,0,0,848.23608,893.85986,1639.25171,1724.16687,-0.02551,-0.02295,0.99649,-1.978,0.578,-0.63,6197,68294,102768
6.84,684,7528,1,0,0,0,848.23608,893.85986,1639.48059,1724.24316,-0.0271,-0.02161,0.99918,-2.048,0.683,-0.56,6194,68293,102757
6.85,685,7529,1,0,0,0,848.23608,893.85986,1640.24353,1724.24316,-0.02625,-0.02222,0.99979,-2.1,0.613,-0.595,6194,68293,102757
6.86,686,7530,1,0,0,0,848.23608,893.85986,1639.17542,1724.47205,-0.02625,-0.02417,1.00089,-2.415,0.648,-0.63,6189,68292,102751
6.87,687,7531,1,0,0,0,848.23608,893.85986,1638.79395,1724.16687,-0.02698,-0.02771,0.99991,-2.275,0.578,-0.56,6189,68292,102751
6.88,688,7532,1,0,0,0,848.23608,893.85986,1639.328,1724.31946,-0.02637,-0.0271,0.99918,-2.205,0.665,-0.578,6186,68288,102749
6.89,689,7533,1,0,0,0,848.23608,893.85986,1639.328,1724.24316,-0.02869,-0.02478,0.99966,-2.013,0.77,-0.613,6186,68288,102749
6.9,690,7534,1,0,0,0,848.15979,893.85986,1639.48059,1724.16687,-0.02649,-0.02454,0.99844,-2.03,0.683,-0.508,6185,68287,102746
6.91,691,7535,1,0,0,0,848.15979,893.85986,1639.09912,1724.39575,-0.02747,-0.02564,0.99905,-2.223,0.665,-0.385,6185,68287,102746
6.92,692,7536,1,0,0,0,848.15979,893.85986,1639.328,1724.24316,-0.02808,-0.02539,0.9971,-2.398,0.7,-0.49,6182,68286,102743
6.93,693,7537,1,0,0,0,848.15979,893.85986,1639.09912,1724.16687,-0.02625,-0.02295,0.99881,-2.328,0.63,-0.648,6182,68286,102743
6.94,694,7538,1,0,0,0,848.15979,893.85986,1638.48877,1724.09058,-0.02661,-0.0221,0.9993,-2.275,0.753,-0.578,6180,68283,102737
6.95,695,7539,1,0,0,0,848.15979,893.70728,1639.48059,1724.24316,-0.02795,-0.02149,1.00101,-2.328,0.823,-0.578,6180,68283,102737
6.96,696,7540,1,0,0,0,848.15979,893.70728,1639.02283,1724.24316,-0.02783,-0.02295,1.00137,-2.66,0.893,-0.525,6180,68278,102729
6.97,697,7541,1,0,0,0,848.15979,893.70728,1639.17542,1724.47205,-0.02698,-0.02393,1.00064,-2.87,0.788,-0.35,6180,68278,102729
6.98,698,7542,1,0,0,0,848.15979,893.70728,1639.25171,1724.31946,-0.02429,-0.02686,0.99905,-2.713,0.543,-0.438,6178,68276,102735
6.99,699,7543,1,0,0,0,848.15979,893.70728,1639.48059,1724.24316,-0.02393,-0.02795,0.99966,-2.695,0.718,-0.473,6178,68276,102735
7.0,700,7544,1,0,0,0,848.23608,893.70728,1639.48059,1724.31946,-0.02551,-0.02612,0.99991,-2.678,0.718,-0.613,6179,68278,102735
7.01,701,7545,1,0,0,0,848.23608,893.70728,1639.09912,1724.39575,-0.02625,-0.02759,0.99991,-2.468,0.665,-0.438,6179,68278,102735
7.02,702,7546,1,0,0,0,848.23608,893.70728,1639.4043,1724.24316,-0.02759,-0.02686,1.00015,-2.398,0.7,-0.665,6180,68280,102730
7.03,703,7547,1,0,0,0,848.23608,893.70728,1639.328,1724.31946,-0.02783,-0.02429,0.99954,-2.135,0.613,-0.578,6180,68280,102730
7.04,704,7548,1,0,0,0,848.23608,893.70728,1639.328,1724.31946,-0.02698,-0.02258,0.99905,-2.188,0.595,-0.56,6176,68276,102726
7.05,705,7549,1,0,0,0,848.23608,893.93616,1639.4043,1724.47205,-0.02673,-0.02246,0.99979,-2.258,0.56,-0.508,6176,68276,102726
7.06,706,7550,1,0,0,0,848.23608,893.93616,1639.328,1724.31946,-0.026,-0.02368,0.99771,-2.398,0.578,-0.438,6175,68275,102728
7.07,707,7551,1,0,0,0,848.23608,893.93616,1639.25171,1724.54834,-0.02686,-0.02478,0.99893,-2.555,0.665,-0.263,6175,68275,102728
7.08,708,7552,1,0,0,0,848.23608,893.93616,1639.328,1724.24316,-0.02771,-0.02686,1.00003,-2.573,0.7,-0.368,6175,68272,102723
7.09,709,7553,1,0,0,0,848.23608,893.93616,1638.71765,1724.24316,-0.02734,-0.0271,0.99991,-2.52,0.77,-0.28,6175,68272,102723
7.1,710,7554,1,0,0,0,847.85461,893.93616,1638.79395,1724.54834,-0.02722,-0.02698,0.99857,-2.555,0.788,-0.315,6176,68277,102725
7.11,711,7555,1,0,0,0,847.85461,893.93616,1639.09912,1724.54834,-0.02698,-0.02564,1.00027,-2.485,0.84,-0.49,6176,68277,102725
7.12,712,7556,1,0,0,0,847.85461,893.93616,1639.25171,1724.54834,-0.02832,-0.02393,0.99942,-2.328,0.7,-0.333,6175,68271,102722
7.13,713,7557,1,0,0,0,847.85461,893.93616,1639.02283,1724.54834,-0.026,-0.0249,0.99905,-2.45,0.718,-0.123,6175,68271,102722
7.14,714,7558,1,0,0,0,847.85461,893.93616,1639.4043,1724.54834,-0.0271,-0.02539,0.99979,-2.555,0.665,-0.42,6172,68269,102727
7.15,715,7559,1,0,0,0,847.85461,894.01245,1638.94653,1724.54834,-0.02734,-0.02661,0.9993,-2.608,0.753,-0.455,6172,68269,102727
7.16,716,7560,1,0,0,0,847.85461,894.01245,1638.94653,1724.47205,-0.02857,-0.02649,0.99991,-2.503,0.805,-0.403,6176,68272,102729
7.17,717,7561,1,0,0,0,847.85461,894.01245,1639.09912,1724.39575,-0.02612,-0.02783,0.99857,-2.468,0.788,-0.333,6176,68272,102729
7.18,718,7562,1,0,0,0,847.85461,894.01245,1639.09912,1724.62463,-0.02698,-0.02734,0.99979,-2.538,0.77,-0.385,6180,68272,102729
7.19,719,7563,1,0,0,0,847.85461,894.01245,1639.02283,1724.54834,-0.02759,-0.02564,0.9993,-2.38,0.718,-0.315,6180,68272,102729
7.2,720,7564,1,0,0,0,848.15979,894.01245,1639.328,1724.31946,-0.02698,-0.0249,0.99991,-2.328,0.735,-0.175,6180,68274,102733
7.21,721,7565,1,0,0,0,848.15979,894.01245,1638.94653,1724.62463,-0.02698,-0.02515,0.99966,-2.293,0.683,-0.385,6180,68274,102733
7.22,722,7566,1,0,0,0,848.15979,894.01245,1639.09912,1724.16687,-0.02771,-0.02319,1.00076,-2.38,0.718,-0.385,6177,68275,102736
7.23,723,7567,1,0,0,0,848.15979,894.01245,1639.328,1724.01428,-0.02637,-0.02576,1.00027,-2.415,0.753,-0.473,6177,68275,102736
7.24,724,7568,1,0,0,0,848.15979,894.01245,1639.09912,1724.16687,-0.02551,-0.02747,0.99857,-2.363,0.665,-0.403,6179,68275,102738
7.25,725,7569,1,0,0,0,848.15979,893.78357,1639.09912,1724.31946,-0.026,-0.02588,0.99796,-2.258,0.63,-0.473,6179,68275,102738
7.26,726,7570,1,0,0,0,848.15979,893.78357,1639.02283,1724.39575,-0.02649,-0.0249,0.99771,-2.258,0.7,-0.508,6179,68270,102735
7.27,727,7571,1,0,0,0,848.15979,893.78357,1639.09912,1724.24316,-0.02625,-0.02441,0.99893,-2.345,0.735,-0.403,6179,68270,102735
7.28,728,7572,1,0,0,0,848.15979,893.78357,1639.17542,1724.09058,-0.02698,-0.02551,0.99991,-2.538,0.718,-0.473,6181,68276,102740
7.29,729,7573,1,0,0,0,848.15979,893.78357,1639.25171,1724.31946,-0.02759,-0.026,1.00064,-2.328,0.735,-0.543,6181,68276,102740
7.3,730,7574,1,0,0,0,848.23608,893.78357,1639.4043,1724.24316,-0.02759,-0.02588,1.00003,-2.415,0.595,-0.508,6183,68275,102744
7.31,731,7575,1,0,0,0,848.23608,893.78357,1638.87024,1724.09058,-0.02771,-0.0249,0.99893,-2.363,0.613,-0.42,6183,68275,102744
7.32,732,7576,1,0,0,0,848.23608,893.78357,1639.17542,1724.16687,-0.02588,-0.02441,0.99857,-2.363,0.665,-0.56,6183,68274,102748
7.33,733,7577,1,0,0,0,848.23608,893.78357,1639.09912,1724.24316,-0.02722,-0.02417,0.99905,-2.415,0.63,-0.63,6183,68274,102748
7.34,734,7578,1,0,0,0,848.23608,893.78357,1639.25171,1724.39575,-0.02734,-0.02441,0.99991,-2.415,0.683,-0.508,6184,68275,102745
7.35,735,7579,1,0,0,0,848.23608,893.85986,1639.25171,1724.24316,-0.02661,-0.02417,0.99881,-2.485,0.683,-0.56,6184,68275,102745
7.36,736,7580,1,0,0,0,848.23608,893.85986,1639.09912,1724.09058,-0.02734,-0.02503,0.99893,-2.468,0.7,-0.56,6185,68272,102750
7.37,737,7581,1,0,0,0,848.23608,893.85986,1639.09912,1724.31946,-0.02527,-0.02441,0.99942,-2.345,0.665,-0.525,6185,68272,102750
7.38,738,7582,1,0,0,0,848.23608,893.85986,1639.17542,1724.24316,-0.02698,-0.02393,1.00003,-2.328,0.823,-0.525,6187,68273,102752
7.39,739,7583,1,0,0,0,848.23608,893.85986,1638.94653,1724.24316,-0.02771,-0.02503,1.00003,-2.52,0.665,-0.49,6187,68273,102752
7.4,740,7584,1,0,0,0,848.0835,893.85986,1639.17542,1724.31946,-0.0271,-0.02441,1.00003,-2.503,0.753,-0.578,6187,68273,102753
7.41,741,7585,1,0,0,0,848.0835,893.85986,1638.87024,1724.39575,-0.02698,-0.02319,0.99905,-2.59,0.665,-0.665,6187,68273,102753
7.42,742,7586,1,0,0,0,848.0835,893.85986,1638.94653,1724.31946,-0.02747,-0.02503,0.99954,-2.59,0.753,-0.63,6188,68274,102758
7.43,743,7587,1,0,0,0,848.0835,893.85986,1638.94653,1724.47205,-0.02734,-0.0249,0.99905,-2.573,0.613,-0.648,6188,68274,102758
7.44,744,7588,1,0,0,0,848.0835,893.85986,1639.09912,1724.09058,-0.02661,-0.02478,0.99771,-2.503,0.595,-0.578,6191,68272,102756
7.45,745,7589,1,0,0,0,848.0835,893.93616,1639.48059,1724.54834,-0.02783,-0.02417,1.00015,-2.66,0.788,-0.543,6191,68272,102756
7.46,746,7590,1,0,0,0,848.0835,893.93616,1638.94653,1724.39575,-0.0271,-0.02564,1.00027,-2.695,0.77,-0.56,6190,68268,102758
7.47,747,7591,1,0,0,0,848.0835,893.93616,1639.02283,1724.09058,-0.02551,-0.02759,0.99844,-2.8,0.718,-0.455,6190,68268,102758
7.48,748,7592,1,0,0,0,848.0835,893.93616,1639.02283,1724.01428,-0.02661,-0.0249,1.00003,-2.748,0.77,-0.385,6193,68268,102761
7.49,749,7593,1,0,0,0,848.0835,893.93616,1639.09912,1724.01428,-0.02722,-0.02429,0.9993,-2.573,0.875,-0.35,6193,68268,102761
7.5,750,7594,1,0,0,0,848.15979,893.93616,1639.17542,1724.09058,-0.02734,-0.02307,0.99783,-2.485,0.823,-0.7,6195,68273,102766
7.51,751,7595,1,0,0,0,848.15979,893.93616,1638.94653,1724.09058,-0.02698,-0.02258,0.9982,-2.695,0.928,-0.665,6195,68273,102766
7.52,752,7596,1,0,0,0,848.15979,893.93616,1639.17542,1724.47205,-0.02649,-0.02307,0.99844,-2.835,1.015,-0.525,6196,68268,102761
7.53,753,7597,1,0,0,0,848.15979,893.93616,1639.17542,1724.24316,-0.0271,-0.02234,1.00076,-3.045,0.788,-0.49,6196,68268,102761
7.54,754,7598,1,0,0,0,848.15979,893.93616,1639.17542,1724.16687,-0.02625,-0.02393,1.00076,-2.94,0.858,-0.438,6196,68267,102761
7.55,755,7599,1,0,0,0,848.15979,893.78357,1639.25171,1724.47205,-0.02478,-0.02612,1.00052,-2.958,0.753,-0.595,6196,68267,102761
7.56,756,7600,1,0,0,0,848.15979,893.78357,1639.17542,1724.24316,-0.02649,-0.026,1.00101,-2.853,0.718,-0.578,6200,68268,102765
7.57,757,7601,1,0,0,0,848.15979,893.78357,1639.17542,1724.47205,-0.02612,-0.02686,0.99954,-2.643,0.7,-0.543,6200,68268,102765
7.58,758,7602,1,0,0,0,848.15979,893.78357,1639.25171,1724.09058,-0.02771,-0.02795,0.99881,-2.695,0.753,-0.175,6201,68270,102767
7.59,759,7603,1,0,0,0,848.15979,893.78357,1639.17542,1723.93799,-0.02747,-0.02966,0.99783,-2.713,0.735,-0.315,6201,68270,102767
7.6,760,7604,1,0,0,0,848.0072,893.78357,1639.4043,1723.93799,-0.02918,-0.02918,1.00064,-2.888,0.718,-0.823,6201,68271,102768
7.61,761,7605,1,0,0,0,848.0072,893.78357,1638.87024,1724.09058,-0.02857,-0.02698,0.99979,-2.398,0.735,-0.63,6201,68271,102768
7.62,762,7606,1,0,0,0,848.0072,893.78357,1638.71765,1724.09058,-0.02905,-0.02356,0.99918,-2.205,0.753,-0.578,6204,68271,102775
7.63,763,7607,1,0,0,0,848.0072,893.78357,1639.25171,1724.01428,-0.02857,-0.02332,0.99783,-2.345,0.683,-0.613,6204,68271,102775
7.64,764,7608,1,0,0,0,848.0072,893.78357,1639.17542,1724.09058,-0.02857,-0.02197,0.9993,-2.695,0.665,-0.543,6204,68271,102772
7.65,765,7609,1,0,0,0,848.0072,893.63098,1639.25171,1724.31946,-0.02612,-0.02332,1.00003,-2.87,0.578,-0.368,6204,68271,102772
7.66,766,7610,1,0,0,0,848.0072,893.63098,1639.02283,1724.24316,-0.02539,-0.02393,1.0004,-2.73,0.823,-0.385,6205,68267,102772
7.67,767,7611,1,0,0,0,848.0072,893.63098,1639.09912,1724.01428,-0.02893,-0.02405,1.00381,-2.643,0.928,-0.525,6205,68267,102772
7.68,768,7612,1,0,0,0,848.0072,893.63098,1639.63318,1724.01428,-0.02979,-0.02637,1.00247,-2.59,0.823,-0.718,6210,68274,102774
7.69,769,7613,1,0,0,0,848.0072,893.63098,1638.94653,1724.01428,-0.03015,-0.02759,1.00089,-2.555,0.7,-0.368,6210,68274,102774
7.7,770,7614,1,0,0,0,848.15979,893.63098,1639.17542,1724.09058,-0.02527,-0.02771,0.99734,-2.205,0.648,-0.385,6209,68268,102769
7.71,771,7615,1,0,0,0,848.15979,893.63098,1639.17542,1724.01428,-0.02283,-0.02588,0.99686,-2.205,0.735,-0.403,6209,68268,102769
7.72,772,7616,1,0,0,0,848.15979,893.63098,1639.25171,1724.24316,-0.02368,-0.02649,1.00015,-2.293,0.7,-0.543,6205,68265,102752
7.73,773,7617,1,0,0,0,848.15979,893.63098,1639.17542,1724.09058,-0.02698,-0.02783,1.00027,-2.485,0.735,-0.543,6205,68265,102752
7.74,774,7618,1,0,0,0,848.15979,893.63098,1639.25171,1724.16687,-0.02942,-0.02771,1.00076,-2.625,0.753,-0.455,6201,68265,102745
7.75,775,7619,1,0,0,0,848.15979,893.70728,1639.70947,1724.24316,-0.02966,-0.02649,0.99796,-2.153,0.788,-0.718,6201,68265,102745
7.76,776,7620,1,0,0,0,848.15979,893.70728,1639.09912,1724.01428,-0.02942,-0.02356,0.9971,-2.153,0.77,-0.665,6201,68259,102739
7.77,777,7621,1,0,0,0,848.15979,893.70728,1639.25171,1723.93799,-0.03052,-0.02295,0.99869,-2.223,0.753,-0.63,6201,68259,102739
7.78,778,7622,1,0,0,0,848.15979,893.70728,1639.25171,1723.93799,-0.03186,-0.02478,1.00064,-2.433,0.805,-0.438,6193,68257,102724
7.79,779,7623,1,0,0,0,848.15979,893.70728,1639.17542,1723.86169,-0.02991,-0.02625,1.00369,-2.608,0.613,-0.438,6193,68257,102724
7.8,780,7624,1,0,0,0,848.15979,893.70728,1639.17542,1723.93799,-0.0249,-0.02673,1.0004,-2.135,0.613,-0.613,6190,68253,102713
7.81,781,7625,1,0,0,0,848.15979,893.70728,1639.09912,1723.7854,-0.02441,-0.02539,0.99857,-1.943,0.578,-0.595,6190,68253,102713
7.82,782,7626,1,0,0,0,848.15979,893.70728,1639.25171,1724.09058,-0.02429,-0.02515,0.99918,-2.065,0.455,-0.508,6187,68251,102703
7.83,783,7627,1,0,0,0,848.15979,893.70728,1639.4043,1723.86169,-0.02527,-0.02515,0.99832,-2.188,0.578,-0.735,6187,68251,102703
7.84,784,7628,1,0,0,0,848.15979,893.70728,1639.328,1724.01428,-0.02551,-0.02246,0.99783,-2.205,0.648,-0.77,6179,68249,102694
7.85,785,7629,1,0,0,0,848.15979,893.70728,1639.25171,1723.86169,-0.02441,-0.021,0.99893,-2.135,0.648,-0.63,6179,68249,102694
7.86,786,7630,1,0,0,0,848.15979,893.70728,1639.25171,1724.01428,-0.02441,-0.021,0.99783,-2.188,0.648,-0.49,6176,68246,102687
7.87,787,7631,1,0,0,0,848.15979,893.70728,1639.25171,1724.09058,-0.02515,-0.02087,0.99796,-2.59,0.718,-0.525,6176,68246,102687
7.88,788,7632,1,0,0,0,848.15979,893.70728,1639.17542,1724.16687,-0.02612,-0.02319,0.99893,-2.87,0.735,-0.595,6173,68243,102681
7.89,789,7633,1,0,0,0,848.15979,893.70728,1639.25171,1723.93799,-0.02783,-0.02625,0.99979,-3.22,0.875,-0.665,6173,68243,102681
7.9,790,7634,1,0,0,0,848.0835,893.70728,1639.63318,1724.09058,-0.03015,-0.0282,1.00235,-3.133,0.875,-0.508,6167,68244,102680
7.91,791,7635,1,0,0,0,848.0835,893.70728,1638.71765,1724.01428,-0.02869,-0.02869,1.00064,-2.888,0.77,-0.455,6167,68244,102680
7.92,792,7636,1,0,0,0,848.0835,893.70728,1639.17542,1724.09058,-0.02527,-0.026,0.99747,-2.433,0.525,-0.333,6161,68240,102674
7.93,793,7637,1,0,0,0,848.0835,893.70728,1638.94653,1724.09058,-0.02734,-0.02503,0.99832,-2.363,0.525,-0.455,6161,68240,102674
7.94,794,7638,1,0,0,0,848.0835,893.70728,1638.94653,1724.01428,-0.02734,-0.02393,0.99734,-2.555,0.613,-0.403,6163,68240,102664
7.95,795,7639,1,0,0,0,848.0835,893.55469,1639.25171,1724.01428,-0.02625,-0.02356,0.99954,-2.748,0.665,-0.403,6163,68240,102664
7.96,796,7640,1,0,0,0,848.0835,893.55469,1639.02283,1724.09058,-0.02503,-0.02405,0.99649,-2.853,0.753,-0.455,6158,68237,102665
7.97,797,7641,1,0,0,0,848.0835,893.55469,1639.09912,1723.93799,-0.02673,-0.02149,0.99734,-2.87,0.788,-0.473,6158,68237,102665
7.98,798,7642,1,0,0,0,848.0835,893.55469,1639.328,1723.93799,-0.02771,-0.02063,0.99893,-2.835,0.91,-0.385,6154,68237,102670
7.99,799,7643,1,0,0,0,848.0835,893.55469,1639.25171,1723.93799,-0.02722,-0.02319,1.0004,-3.01,0.928,-0.333,6154,68237,102670
8.0,800,7644,1,0,0,0,848.0835,893.55469,1639.17542,1724.31946,-0.02759,-0.02368,1.00247,-3.273,0.823,-0.263,6153,68236,102666
8.01,801,7645,1,0,0,0,848.0835,893.55469,1639.09912,1723.86169,-0.02612,-0.0282,0.99966,-3.378,0.77,-0.403,6153,68236,102666
8.02,802,7646,1,0,0,0,848.0835,893.55469,1639.25171,1724.24316,-0.02319,-0.02759,0.99844,-2.993,0.683,-0.333,6154,68235,102662
8.03,803,7647,1,0,0,0,848.0835,893.55469,1639.25171,1723.93799,-0.02466,-0.02478,1.00027,-2.94,0.648,-0.333,6154,68235,102662
8.04,804,7648,1,0,0,0,848.0835,893.55469,1639.328,1723.86169,-0.02564,-0.02466,0.99942,-3.063,0.84,-0.368,6149,68230,102658
8.05,805,7649,1,0,0,0,848.0835,893.78357,1639.78577,1724.09058,-0.02734,-0.02551,1.00003,-3.36,0.805,-0.333,6149,68230,102658
8.06,806,7650,1,0,0,0,848.0835,893.78357,1639.17542,1724.01428,-0.02893,-0.02551,1.00089,-3.168,0.753,-0.35,6149,68230,102657
8.07,807,7651,1,0,0,0,848.0835,893.78357,1639.4043,1724.01428,-0.02808,-0.02564,1.00089,-3.133,0.788,-0.455,6149,68230,102657
8.08,808,7652,1,0,0,0,848.0835,893.78357,1639.328,1724.16687,-0.02564,-0.02503,0.99698,-3.29,0.805,-0.175,6149,68232,102658
8.09,809,7653,1,0,0,0,848.0835,893.78357,1639.09912,1723.7854,-0.02625,-0.02588,0.99429,-3.168,0.91,-0.14,6149,68232,102658
8.1,810,7654,1,0,0,0,848.0835,893.78357,1639.02283,1723.86169,-0.02661,-0.02588,0.99649,-3.378,0.945,-0.403,6149,68234,102657
8.11,811,7655,1,0,0,0,848.0835,893.78357,1638.94653,1723.86169,-0.0293,-0.02576,0.99979,-3.57,0.91,-0.193,6149,68234,102657
8.12,812,7656,1,0,0,0,848.0835,893.78357,1639.17542,1723.93799,-0.02698,-0.0282,0.99954,-3.675,0.945,-0.175,6149,68228,102662
8.13,813,7657,1,0,0,0,848.0835,893.78357,1639.25171,1723.86169,-0.0271,-0.02942,1.00137,-3.553,0.84,-0.298,6149,68228,102662
8.14,814,7658,1,0,0,0,848.0835,893.78357,1639.17542,1723.93799,-0.02771,-0.02881,1.0032,-3.343,0.84,-0.193,6148,68233,102665
8.15,815,7659,1,0,0,0,848.0835,893.70728,1639.328,1723.7854,-0.02795,-0.0304,1.00052,-3.343,0.683,-0.175,6148,68233,102665
8.16,816,7660,1,0,0,0,848.0835,893.70728,1639.25171,1724.09058,-0.02857,-0.03125,0.99954,-3.273,0.648,-0.333,6148,68234,102667
8.17,817,7661,1,0,0,0,848.0835,893.70728,1639.17542,1724.01428,-0.02551,-0.03162,0.99857,-3.098,0.7,-0.525,6148,68234,102667
8.18,818,7662,1,0,0,0,848.0835,893.70728,1639.17542,1724.01428,-0.02979,-0.02905,0.99954,-2.8,0.753,-0.385,6151,68237,102669
8.19,819,7663,1,0,0,0,848.0835,893.70728,1639.02283,1723.93799,-0.02954,-0.02795,1.00003,-2.73,0.7,-0.35,6151,68237,102669
8.2,820,7664,1,0,0,0,848.0835,893.70728,1639.55688,1724.09058,-0.02661,-0.02881,0.9993,-2.835,0.683,-0.315,6152,68236,102673
8.21,821,7665,1,0,0,0,848.0835,893.70728,1638.94653,1724.01428,-0.02747,-0.02918,0.99722,-2.923,0.665,-0.403,6152,68236,102673
8.22,822,7666,1,0,0,0,848.0835,893.70728,1639.17542,1723.93799,-0.02759,-0.02857,0.99796,-2.853,0.648,-0.525,6149,68235,102674
8.23,823,7667,1,0,0,0,848.0835,893.70728,1639.25171,1723.63281,-0.02918,-0.02722,0.99991,-2.713,0.77,-0.543,6149,68235,102674
8.24,824,7668,1,0,0,0,848.0835,893.70728,1639.09912,1723.93799,-0.02698,-0.02857,0.99808,-2.748,0.788,-0.455,6152,68236,102679
8.25,825,7669,1,0,0,0,848.0835,893.70728,1639.25171,1724.01428,-0.02795,-0.02954,0.99942,-2.695,0.84,-0.595,6152,68236,102679
8.26,826,7670,1,0,0,0,848.0835,893.70728,1639.09912,1724.16687,-0.02808,-0.03015,0.99966,-2.748,0.823,-0.473,6153,68237,102684
8.27,827,7671,1,0,0,0,848.0835,893.70728,1639.25171,1723.93799,-0.02942,-0.02783,1.0004,-2.765,0.84,-0.718,6153,68237,102684
8.28,828,7672,1,0,0,0,848.0835,893.70728,1639.328,1723.86169,-0.02661,-0.02783,1.00003,-2.678,0.735,-0.42,6154,68238,102685
8.29,829,7673,1,0,0,0,848.0835,893.70728,1639.17542,1723.70911,-0.02637,-0.02942,0.99796,-2.538,0.823,-0.403,6154,68238,102685
8.3,830,7674,1,0,0,0,848.15979,893.70728,1639.09912,1723.93799,-0.02722,-0.02918,1.00003,-2.573,0.753,-0.56,6155,68236,102690
8.31,831,7675,1,0,0,0,848.15979,893.70728,1639.09912,1723.7854,-0.02747,-0.02832,0.99905,-2.695,0.683,-0.718,6155,68236,102690
8.32,832,7676,1,0,0,0,848.15979,893.70728,1639.17542,1724.01428,-0.02808,-0.02795,0.9993,-2.59,0.718,-0.665,6155,68236,102690
8.33,833,7677,1,0,0,0,848.15979,893.70728,1639.17542,1723.86169,-0.02759,-0.02832,0.99979,-2.713,0.805,-0.683,6155,68232,102688
8.34,834,7678,1,0,0,0,848.15979,893.70728,1639.48059,1723.93799,-0.02698,-0.02747,0.99991,-2.87,0.823,-0.648,6155,68232,102688
8.35,835,7679,1,0,0,0,848.15979,893.70728,1640.16724,1723.86169,-0.02722,-0.02686,1.00015,-2.503,0.665,-0.595,6159,68235,102693
8.36,836,7680,1,0,0,0,848.15979,893.70728,1638.94653,1723.7854,-0.02771,-0.02795,0.99881,-2.66,0.683,-0.595,6159,68235,102693
8.37,837,7681,1,0,0,0,848.15979,893.70728,1639.25171,1724.09058,-0.02734,-0.02795,0.99869,-2.783,0.648,-0.613,6160,68231,102699
8.38,838,7682,1,0,0,0,848.15979,893.70728,1639.17542,1724.16687,-0.02625,-0.02783,0.99734,-2.643,0.595,-0.56,6160,68231,102699
8.39,839,7683,1,0,0,0,848.15979,893.70728,1639.17542,1724.16687,-0.02747,-0.02759,1.00015,-2.73,0.665,-0.473,6160,68236,102702
8.4,840,7684,1,0,0,0,848.31238,893.70728,1639.48059,1723.93799,-0.02832,-0.0282,1.00015,-2.783,0.613,-0.473,6163,68236,102705
8.41,841,7685,1,0,0,0,848.31238,893.70728,1639.02283,1723.93799,-0.02649,-0.02918,0.99954,-2.783,0.56,-0.403,6163,68236,102705
8.42,842,7686,1,0,0,0,848.31238,893.70728,1638.71765,1724.09058,-0.02686,-0.02991,0.99869,-2.87,0.735,-0.473,6163,68236,102705
8.43,843,7687,1,0,0,0,848.31238,893.70728,1638.71765,1723.93799,-0.02673,-0.02881,0.99954,-2.695,0.7,-0.298,6163,68236,102711
8.44,844,7688,1,0,0,0,848.31238,893.70728,1638.64136,1723.93799,-0.02722,-0.02881,1.00027,-2.888,0.7,-0.508,6163,68236,102711
8.45,845,7689,1,0,0,0,848.31238,893.47839,1638.87024,1723.86169,-0.02759,-0.02918,0.99942,-2.765,0.648,-0.403,6166,68234,102710
8.46,846,7690,1,0,0,0,848.31238,893.47839,1638.56506,1723.93799,-0.02771,-0.02918,1.00003,-2.748,0.77,-0.385,6166,68234,102710
8.47,847,7691,1,0,0,0,848.31238,893.47839,1638.71765,1723.86169,-0.02795,-0.02893,0.99979,-2.678,0.753,-0.438,6169,68237,102719
8.48,848,7692,1,0,0,0,848.31238,893.47839,1638.71765,1723.86169,-0.02966,-0.02881,0.99905,-2.713,0.753,-0.455,6169,68237,102719
8.49,849,7693,1,0,0,0,848.31238,893.47839,1639.328,1723.86169,-0.02637,-0.02905,0.99918,-2.783,0.7,-0.455,6169,68236,102723
8.5,850,7694,1,0,0,0,848.15979,893.47839,1639.55688,1723.93799,-0.02734,-0.03015,0.99966,-2.765,0.805,-0.49,6172,68239,102733
8.51,851,7695,1,0,0,0,848.15979,893.47839,1639.02283,1723.86169,-0.02881,-0.02966,1.00125,-2.73,0.753,-0.578,6172,68239,102733
8.52,852,7696,1,0,0,0,848.15979,893.47839,1639.328,1723.86169,-0.02857,-0.02991,0.99991,-2.853,0.683,-0.648,6172,68239,102733
8.53,853,7697,1,0,0,0,848.15979,893.47839,1639.328,1723.7854,-0.02783,-0.02979,0.99979,-2.765,0.63,-0.455,6172,68242,102736
8.54,854,7698,1,0,0,0,848.15979,893.47839,1639.17542,1723.86169,-0.02515,-0.03125,0.99661,-2.59,0.63,-0.438,6172,68242,102736
8.55,855,7699,1,0,0,0,848.15979,893.70728,1639.25171,1724.01428,-0.02832,-0.02771,0.99649,-2.695,0.77,-0.368,6174,68236,102740
8.56,856,7700,1,0,0,0,848.15979,893.70728,1639.09912,1724.39575,-0.03052,-0.02869,0.99979,-2.905,0.875,-0.42,6174,68236,102740
8.57,857,7701,1,0,0,0,848.15979,893.70728,1639.328,1723.86169,-0.02905,-0.03027,0.99991,-2.888,0.788,-0.385,6179,68240,102743
8.58,858,7702,1,0,0,0,848.15979,893.70728,1639.328,1723.86169,-0.0282,-0.0304,1.00003,-2.748,0.735,-0.403,6179,68240,102743
8.59,859,7703,1,0,0,0,848.15979,893.70728,1639.25171,1724.16687,-0.02527,-0.02905,0.99844,-2.608,0.665,-0.385,6179,68244,102745
8.6,860,7704,1,0,0,0,848.15979,893.70728,1639.17542,1723.86169,-0.02869,-0.02844,0.9993,-2.8,0.84,-0.403,6181,68246,102747
8.61,861,7705,1,0,0,0,848.15979,893.70728,1639.02283,1724.01428,-0.03125,-0.03052,1.00137,-2.993,0.823,-0.385,6181,68246,102747
8.62,862,7706,1,0,0,0,848.15979,893.70728,1639.17542,1723.93799,-0.02942,-0.03333,1.00027,-2.993,0.928,-0.315,6181,68246,102747
8.63,863,7707,1,0,0,0,848.15979,893.70728,1639.25171,1724.01428,-0.02966,-0.03296,1.00027,-2.87,0.753,-0.368,6182,68240,102753
8.64,864,7708,1,0,0,0,848.15979,893.70728,1639.25171,1723.93799,-0.02661,-0.03064,1.00027,-2.59,0.683,-0.438,6182,68240,102753
8.65,865,7709,1,0,0,0,848.15979,893.70728,1640.01465,1723.7854,-0.02503,-0.02441,0.99796,-2.608,0.648,-0.245,6181,68242,102757
8.66,866,7710,1,0,0,0,848.15979,893.70728,1638.87024,1723.7854,-0.02295,-0.02466,0.99942,-2.695,0.595,-0.07,6181,68242,102757
8.67,867,7711,1,0,0,0,848.15979,893.70728,1639.17542,1724.01428,-0.02332,-0.02722,0.99857,-2.853,0.7,-0.333,6188,68245,102762
8.68,868,7712,1,0,0,0,848.15979,893.70728,1639.09912,1723.86169,-0.02771,-0.03003,1.00064,-3.098,0.84,-0.49,6188,68245,102762
8.69,869,7713,1,0,0,0,848.15979,893.70728,1639.09912,1724.09058,-0.03076,-0.03259,1.00259,-3.255,0.893,-0.56,6190,68248,102771
8.7,870,7714,1,0,0,0,847.77832,893.70728,1638.79395,1723.86169,-0.03076,-0.03626,0.99869,-2.678,0.648,-0.455,6190,68248,102771
8.71,871,7715,1,0,0,0,847.77832,893.70728,1638.56506,1724.01428,-0.02747,-0.03455,0.99637,-2.083,0.56,-0.508,6193,68246,102773
8.72,872,7716,1,0,0,0,847.77832,893.70728,1638.71765,1724.31946,-0.02844,-0.03003,0.99844,-1.803,0.543,-0.508,6193,68246,102773
8.73,873,7717,1,0,0,0,847.77832,893.70728,1638.71765,1723.93799,-0.02673,-0.02783,0.99808,-1.995,0.578,-0.595,6192,68249,102765
8.74,874,7718,1,0,0,0,847.77832,893.70728,1638.71765,1724.39575,-0.02649,-0.02893,1.00076,-2.328,0.648,-0.543,6192,68249,102765
8.75,875,7719,1,0,0,0,847.77832,893.63098,1638.79395,1723.86169,-0.02783,-0.03125,1.00015,-2.608,0.63,-0.613,6186,68246,102756
8.76,876,7720,1,0,0,0,847.77832,893.63098,1638.56506,1723.93799,-0.02857,-0.03162,0.99869,-2.363,0.63,-0.578,6186,68246,102756
8.77,877,7721,1,0,0,0,847.77832,893.63098,1638.71765,1724.16687,-0.02612,-0.03088,0.99649,-2.275,0.665,-0.543,6182,68246,102746
8.78,878,7722,1,0,0,0,847.77832,893.63098,1638.79395,1723.86169,-0.02795,-0.0293,0.9982,-2.31,0.788,-0.7,6182,68246,102746
8.79,879,7723,1,0,0,0,847.77832,893.63098,1638.79395,1723.7854,-0.02905,-0.03003,0.99942,-2.38,0.753,-0.735,6181,68242,102745
8.8,880,7724,1,0,0,0,848.15979,893.63098,1639.70947,1724.24316,-0.02942,-0.03333,1.00076,-2.293,0.735,-0.473,6181,68242,102745
8.81,881,7725,1,0,0,0,848.15979,893.63098,1639.02283,1723.63281,-0.02771,-0.0315,1.00137,-2.118,0.7,-0.368,6174,68237,102739
8.82,882,7726,1,0,0,0,848.15979,893.63098,1639.25171,1723.93799,-0.0304,-0.03101,1.00235,-2.03,0.578,-0.525,6174,68237,102739
8.83,883,7727,1,0,0,0,848.15979,893.63098,1639.17542,1723.86169,-0.02881,-0.03162,0.99966,-1.995,0.455,-0.7,6171,68243,102732
8.84,884,7728,1,0,0,0,848.15979,893.63098,1638.94653,1724.01428,-0.02954,-0.03174,0.99686,-1.96,0.473,-0.7,6171,68243,102732
8.85,885,7729,1,0,0,0,848.15979,893.85986,1639.09912,1723.86169,-0.02893,-0.02869,0.9971,-1.943,0.718,-0.823,6167,68241,102727
8.86,886,7730,1,0,0,0,848.15979,893.85986,1638.94653,1723.93799,-0.02795,-0.0271,0.99832,-2.065,0.613,-0.753,6167,68241,102727
8.87,887,7731,1,0,0,0,848.15979,893.85986,1639.25171,1723.86169,-0.0271,-0.02734,1.00015,-1.995,0.648,-0.753,6165,68239,102727
8.88,888,7732,1,0,0,0,848.15979,893.85986,1639.17542,1724.24316,-0.02722,-0.02637,1.00223,-2.135,0.683,-0.875,6165,68239,102727
8.89,889,7733,1,0,0,0,848.15979,893.85986,1639.09912,1723.93799,-0.0249,-0.02759,1.00076,-2.223,0.683,-0.945,6160,68240,102722
8.9,890,7734,1,0,0,0,848.0835,893.85986,1639.25171,1723.7854,-0.02454,-0.02979,0.99796,-2.293,0.7,-0.753,6160,68240,102722
8.91,891,7735,1,0,0,0,848.0835,893.85986,1639.17542,1723.93799,-0.02771,-0.02905,0.9982,-2.118,0.735,-0.77,6159,68237,102721
8.92,892,7736,1,0,0,0,848.0835,893.85986,1639.02283,1724.01428,-0.02747,-0.02918,0.99698,-2.205,0.84,-0.718,6159,68237,102721
8.93,893,7737,1,0,0,0,848.0835,893.85986,1638.56506,1723.86169,-0.0293,-0.02869,1.00027,-2.118,0.735,-0.735,6157,68237,102722
8.94,894,7738,1,0,0,0,848.0835,893.85986,1639.25171,1723.93799,-0.02893,-0.03015,1.0004,-1.978,0.63,-0.648,6157,68237,102722
8.95,895,7739,1,0,0,0,848.0835,893.55469,1639.63318,1723.7854,-0.02795,-0.0282,1.00027,-1.908,0.648,-0.77,6154,68234,102716
8.96,896,7740,1,0,0,0,848.0835,893.55469,1638.94653,1723.7854,-0.02759,-0.02576,0.99979,-1.908,0.595,-0.578,6154,68234,102716
8.97,897,7741,1,0,0,0,848.0835,893.55469,1639.17542,1724.01428,-0.02625,-0.0271,0.99966,-2.083,0.49,-0.42,6154,68237,102720
8.98,898,7742,1,0,0,0,848.0835,893.55469,1639.17542,1724.09058,-0.02539,-0.0282,0.99844,-1.855,0.63,-0.385,6154,68237,102720
8.99,899,7743,1,0,0,0,848.0835,893.55469,1639.17542,1723.86169,-0.02649,-0.02698,0.99808,-1.925,0.648,-0.63,6150,68233,102724
9.0,900,7744,1,0,0,0,848.0072,893.55469,1639.25171,1724.09058,-0.02808,-0.02673,0.99673,-2.118,0.543,-0.735,6150,68233,102724
9.01,901,7745,1,0,0,0,848.0072,893.55469,1639.17542,1724.01428,-0.02808,-0.02661,0.99905,-2.083,0.595,-0.613,6151,68239,102727
9.02,902,7746,1,0,0,0,848.0072,893.55469,1639.09912,1723.86169,-0.02588,-0.02991,0.99954,-2.345,0.613,-0.578,6151,68239,102727
9.03,903,7747,1,0,0,0,848.0072,893.55469,1639.328,1724.09058,-0.02686,-0.02942,1.00076,-2.293,0.665,-0.7,6150,68238,102722
9.04,904,7748,1,0,0,0,848.0072,893.55469,1639.328,1723.93799,-0.026,-0.02881,0.99991,-2.223,0.613,-0.63,6150,68238,102722
9.05,905,7749,1,0,0,0,848.0072,893.63098,1639.25171,1723.86169,-0.02698,-0.02747,1.00015,-2.065,0.63,-0.77,6150,68236,102724
9.06,906,7750,1,0,0,0,848.0072,893.63098,1639.09912,1723.86169,-0.02722,-0.02771,0.99942,-2.065,0.665,-0.56,6150,68236,102724
9.07,907,7751,1,0,0,0,848.0072,893.63098,1639.328,1723.86169,-0.02783,-0.02539,0.99734,-1.978,0.648,-0.473,6153,68240,102726
9.08,908,7752,1,0,0,0,848.0072,893.63098,1639.25171,1723.7854,-0.02698,-0.02478,0.99661,-2.065,0.665,-0.683,6153,68240,102726
9.09,909,7753,1,0,0,0,848.0072,893.63098,1639.4043,1723.70911,-0.02576,-0.02454,0.99637,-2.135,0.7,-0.35,6151,68242,102725
9.1,910,7754,1,0,0,0,847.77832,893.63098,1638.87024,1723.70911,-0.02661,-0.02503,0.99857,-2.433,0.735,-0.438,6151,68242,102725
9.11,911,7755,1,0,0,0,847.77832,893.63098,1638.56506,1723.7854,-0.0271,-0.02686,1.00076,-2.415,0.735,-0.403,6153,68241,102725
9.12,912,7756,1,0,0,0,847.77832,893.63098,1638.71765,1723.7854,-0.02734,-0.02966,1.00162,-2.45,0.665,-0.578,6153,68241,102725
9.13,913,7757,1,0,0,0,847.77832,893.63098,1638.64136,1723.93799,-0.02747,-0.02991,1.0004,-2.485,0.613,-0.49,6152,68245,102730
9.14,914,7758,1,0,0,0,847.77832,893.63098,1639.17542,1723.7854,-0.02795,-0.02942,1.00015,-2.363,0.613,-0.455,6152,68245,102730
9.15,915,7759,1,0,0,0,847.77832,893.63098,1639.25171,1723.55652,-0.0271,-0.02893,0.99918,-2.293,0.578,-0.525,6153,68242,102734
9.16,916,7760,1,0,0,0,847.77832,893.63098,1638.79395,1723.7854,-0.02637,-0.02881,0.99722,-2.363,0.683,-0.56,6153,68242,102734
9.17,917,7761,1,0,0,0,847.77832,893.63098,1638.56506,1723.7854,-0.02673,-0.02478,0.99966,-2.223,0.805,-0.56,6153,68240,102734
9.18,918,7762,1,0,0,0,847.77832,893.63098,1638.71765,1723.70911,-0.02698,-0.02551,0.99966,-2.31,0.665,-0.473,6153,68240,102734
9.19,919,7763,1,0,0,0,847.77832,893.63098,1638.56506,1723.86169,-0.026,-0.02771,0.99796,-2.345,0.683,-0.385,6159,68240,102733
9.2,920,7764,1,0,0,0,847.85461,893.63098,1638.71765,1723.63281,-0.02832,-0.02783,1.00015,-2.415,0.578,-0.315,6159,68240,102733
9.21,921,7765,1,0,0,0,847.85461,893.63098,1638.56506,1723.86169,-0.02722,-0.02893,1.00015,-2.45,0.665,-0.473,6157,68243,102739
9.22,922,7766,1,0,0,0,847.85461,893.63098,1638.56506,1723.86169,-0.02673,-0.02857,1.0004,-2.433,0.7,-0.613,6157,68243,102739
9.23,923,7767,1,0,0,0,847.85461,893.63098,1638.64136,1723.70911,-0.02832,-0.02966,0.99747,-2.205,0.595,-0.438,6160,68242,102746
9.24,924,7768,1,0,0,0,847.85461,893.63098,1638.71765,1723.63281,-0.02612,-0.0271,0.99673,-1.995,0.578,-0.49,6160,68242,102746
9.25,925,7769,1,0,0,0,847.85461,893.55469,1638.94653,1723.7854,-0.02759,-0.02368,0.99991,-2.048,0.578,-0.525,6159,68244,102749
9.26,926,7770,1,0,0,0,847.85461,893.55469,1638.64136,1723.63281,-0.02747,-0.02588,0.99979,-2.153,0.63,-0.385,6159,68244,102749
9.27,927,7771,1,0,0,0,847.85461,893.55469,1639.17542,1723.63281,-0.02747,-0.02747,0.99966,-2.328,0.753,-0.665,6159,68245,102752
9.28,928,7772,1,0,0,0,847.85461,893.55469,1639.02283,1723.55652,-0.02612,-0.02808,0.99942,-2.363,0.665,-0.735,6159,68245,102752
9.29,929,7773,1,0,0,0,847.85461,893.55469,1638.94653,1723.70911,-0.02698,-0.0271,1.00015,-2.293,0.665,-0.508,6163,68243,102753
9.3,930,7774,1,0,0,0,848.15979,893.55469,1639.02283,1723.70911,-0.02539,-0.0282,0.99942,-2.293,0.63,-0.578,6163,68243,102753
9.31,931,7775,1,0,0,0,848.15979,893.55469,1639.02283,1723.63281,-0.026,-0.02783,0.99966,-2.345,0.648,-0.7,6160,68245,102760
9.32,932,7776,1,0,0,0,848.15979,893.55469,1639.02283,1723.63281,-0.02612,-0.02722,0.9993,-2.275,0.7,-0.578,6160,68245,102760
9.33,933,7777,1,0,0,0,848.15979,893.55469,1639.17542,1723.55652,-0.02747,-0.026,0.99942,-2.013,0.63,-0.753,6165,68249,102762
9.34,934,7778,1,0,0,0,848.15979,893.55469,1639.02283,1723.48022,-0.0282,-0.02478,0.99942,-2.258,0.595,-0.805,6165,68249,102762
9.35,935,7779,1,0,0,0,848.15979,893.63098,1639.09912,1723.86169,-0.026,-0.02722,0.99783,-2.293,0.648,-0.7,6164,68246,102765
9.36,936,7780,1,0,0,0,848.15979,893.63098,1638.94653,1723.7854,-0.02747,-0.02734,0.9982,-2.363,0.7,-0.683,6164,68246,102765
9.37,937,7781,1,0,0,0,848.15979,893.63098,1639.09912,1724.16687,-0.02795,-0.02637,0.99893,-2.205,0.735,-0.683,6168,68248,102770
9.38,938,7782,1,0,0,0,848.15979,893.63098,1639.02283,1723.7854,-0.02661,-0.0249,0.99942,-2.188,0.665,-0.683,6168,68248,102770
9.39,939,7783,1,0,0,0,848.15979,893.63098,1639.17542,1723.93799,-0.02625,-0.02405,1.00003,-2.258,0.753,-0.683,6168,68249,102770
9.4,940,7784,1,0,0,0,847.93091,893.63098,1639.48059,1723.63281,-0.02515,-0.02551,0.99954,-2.17,0.7,-0.63,6168,68249,102770
9.41,941,7785,1,0,0,0,847.93091,893.63098,1638.79395,1723.63281,-0.02625,-0.02673,1.00003,-2.38,0.665,-0.508,6170,68252,102779
9.42,942,7786,1,0,0,0,847.93091,893.63098,1638.94653,1723.7854,-0.02637,-0.02625,1.00064,-2.538,0.7,-0.49,6170,68252,102779
9.43,943,7787,1,0,0,0,847.93091,893.63098,1638.87024,1724.24316,-0.02661,-0.0271,1.0004,-2.328,0.683,-0.333,6170,68251,102780
9.44,944,7788,1,0,0,0,847.93091,893.63098,1638.87024,1723.86169,-0.02649,-0.02783,0.99783,-2.433,0.77,-0.613,6170,68251,102780
9.45,945,7789,1,0,0,0,847.93091,893.55469,1639.09912,1723.70911,-0.02747,-0.02625,0.99869,-2.31,0.718,-0.595,6173,68250,102776
9.46,946,7790,1,0,0,0,847.93091,893.55469,1638.48877,1723.70911,-0.02698,-0.02564,0.99722,-2.398,0.7,-0.683,6173,68250,102776
9.47,947,7791,1,0,0,0,847.93091,893.55469,1638.94653,1723.7854,-0.02857,-0.02576,0.99966,-2.363,0.7,-0.613,6177,68252,102785
9.48,948,7792,1,0,0,0,847.93091,893.55469,1638.94653,1723.7854,-0.03003,-0.02588,1.00027,-2.398,0.718,-0.543,6177,68252,102785
9.49,949,7793,1,0,0,0,847.93091,893.55469,1638.79395,1723.86169,-0.02844,-0.02734,0.99942,-2.328,0.665,-0.56,6178,68254,102797
