Time(s),SampleIndex,Seq,ValidFlag,InterpFlag,GapLen,MissingBefore,Uc1(mV),Uc2(mV),Ut1(mV),Ut2(mV),AccX(g),AccY(g),AccZ(g),GyroX(dps),GyroY(dps),GyroZ(dps),PPG_Green,PPG_Red,PPG_IR
0.0,0,12485,1,0,0,0,808.86841,874.63379,1564.78882,1687.39319,-0.03296,0.01489,1.0004,-2.17,0.525,0.35,6865,74671,110196
0.01,1,12486,1,0,0,0,808.86841,874.63379,1564.48364,1687.92725,-0.03088,0.01306,0.99918,-2.188,0.613,0.263,6865,74671,110196
0.02,2,12487,1,0,0,0,808.86841,874.63379,1564.71252,1687.69836,-0.03394,0.01123,1.00101,-2.118,0.648,0.105,6866,74671,110196
0.03,3,12488,1,0,0,0,808.86841,874.63379,1564.86511,1687.77466,-0.03504,0.01001,1.00235,-1.89,0.42,-0.053,6866,74671,110196
0.04,4,12489,1,0,0,0,808.86841,874.63379,1564.63623,1687.69836,-0.03516,0.00781,1.00198,-1.61,0.368,-0.14,6867,74671,110194
0.05,5,12490,1,0,0,0,808.9447,874.63379,1564.86511,1687.46948,-0.0343,0.00757,1.00186,-1.225,0.49,-0.175,6867,74671,110194
0.06,6,12491,1,0,0,0,808.9447,874.63379,1564.63623,1687.69836,-0.03711,0.00891,1.00443,-0.805,0.42,-0.385,6868,74670,110195
0.07,7,12492,1,0,0,0,808.9447,874.63379,1564.63623,1687.69836,-0.0365,0.01062,1.00125,-0.578,0.473,-0.7,6868,74670,110195
0.08,8,12493,1,0,0,0,808.9447,874.63379,1564.55994,1687.46948,-0.0354,0.01074,0.99966,-0.438,0.368,-0.91,6868,74665,110199
0.09,9,12494,1,0,0,0,808.9447,874.63379,1564.78882,1687.54578,-0.03601,0.01294,0.9982,-0.35,0.455,-0.788,6868,74665,110199
0.1,10,12495,1,0,0,0,808.9447,874.40491,1564.86511,1687.77466,-0.03516,0.01624,0.99796,-0.315,0.42,-0.84,6870,74664,110198
0.11,11,12496,1,0,0,0,808.9447,874.40491,1564.40735,1687.2406,-0.03174,0.01794,0.99551,-0.42,0.368,-0.98,6870,74664,110198
0.12,12,12497,1,0,0,0,808.9447,874.40491,1564.71252,1687.2406,-0.03088,0.02063,0.99649,-0.543,0.42,-1.085,6872,74664,110194
0.13,13,12498,1,0,0,0,808.9447,874.40491,1564.71252,1687.77466,-0.0282,0.02527,1.00015,-1.103,0.35,-0.963,6872,74664,110194
0.14,14,12499,1,0,0,0,808.9447,874.40491,1564.78882,1687.16431,-0.02527,0.02551,1.00003,-1.33,0.508,-0.665,6874,74664,110200
0.15,15,12500,1,0,0,0,809.09729,874.40491,1564.94141,1687.39319,-0.02258,0.02637,1.00015,-1.558,0.595,-0.56,6874,74664,110200
0.16,16,12501,1,0,0,0,809.09729,874.40491,1564.71252,1687.46948,-0.02332,0.02747,1.00186,-1.803,0.473,-0.315,6875,74663,110204
0.17,17,12502,1,0,0,0,809.09729,874.40491,1564.78882,1687.39319,-0.02319,0.02832,1.00052,-2.083,0.56,-0.263,6875,74663,110204
0.18,18,12503,1,0,0,0,809.09729,874.40491,1564.94141,1687.2406,-0.02417,0.0271,0.99771,-3.045,0.683,0.035,6874,74663,110207
0.19,19,12504,1,0,0,0,809.09729,874.40491,1564.86511,1687.39319,-0.02722,0.02564,0.99991,-3.063,0.718,0.245,6874,74663,110207
0.2,20,12505,1,0,0,0,809.09729,874.25232,1564.78882,1687.31689,-0.02942,0.02222,1.00052,-3.378,0.56,0.613,6876,74667,110215
0.21,21,12506,1,0,0,0,809.09729,874.25232,1564.71252,1687.31689,-0.03064,0.01819,1.00064,-3.483,0.595,0.525,6876,74667,110215
0.22,22,12507,1,0,0,0,809.09729,874.25232,1564.78882,1687.31689,-0.03064,0.01404,0.99918,-3.745,0.735,0.473,6879,74673,110223
0.23,23,12508,1,0,0,0,809.09729,874.25232,1564.78882,1687.2406,-0.03162,0.01343,1.00052,-3.325,0.683,0.35,6879,74673,110223
0.24,24,12509,1,0,0,0,809.09729,874.25232,1564.78882,1687.31689,-0.03223,0.0116,0.99979,-3.185,0.77,0.315,6881,74672,110226
0.25,25,12510,1,0,0,0,808.9447,874.25232,1564.78882,1687.54578,-0.03027,0.0116,0.9982,-3.378,0.578,0.158,6881,74672,110226
0.26,26,12511,1,0,0,0,808.9447,874.25232,1564.78882,1687.39319,-0.03223,0.01111,1.00052,-3.465,0.525,0.21,6883,74672,110229
0.27,27,12512,1,0,0,0,808.9447,874.25232,1564.94141,1687.62207,-0.03467,0.01172,1.00162,-2.993,0.648,0.053,6883,74672,110229
0.28,28,12513,1,0,0,0,808.9447,874.25232,1564.63623,1687.62207,-0.03491,0.01282,1.00101,-2.958,0.753,-0.123,6885,74672,110232
0.29,29,12514,1,0,0,0,808.9447,874.25232,1564.71252,1687.46948,-0.03455,0.01196,1.00247,-3.08,0.648,-0.403,6885,74672,110232
0.3,30,12515,1,0,0,0,808.9447,874.5575,1564.86511,1687.31689,-0.03552,0.00684,1.00064,-2.835,0.683,-0.49,6886,74672,110231
0.31,31,12516,1,0,0,0,808.9447,874.5575,1564.48364,1687.39319,-0.03613,0.00427,1.00089,-2.503,0.823,-0.56,6886,74672,110231
0.32,32,12517,1,0,0,0,808.9447,874.5575,1564.78882,1688.76648,-0.03516,0.00842,1.00443,-1.89,0.788,-0.77,6887,74671,110237
0.33,33,12518,1,0,0,0,808.9447,874.5575,1565.0177,1687.31689,-0.03162,0.01025,1.0015,-1.488,0.543,-0.875,6887,74671,110237
0.34,34,12519,1,0,0,0,808.9447,874.5575,1564.78882,1687.31689,-0.03259,0.00867,0.9982,-1.505,0.718,-1.155,6893,74668,110236
0.35,35,12520,1,0,0,0,808.9447,874.5575,1564.94141,1687.16431,-0.03479,0.01111,1.00003,-1.365,0.7,-1.12,6893,74668,110236
0.36,36,12521,1,0,0,0,808.9447,874.5575,1564.63623,1687.2406,-0.03211,0.0144,1.00003,-1.348,0.613,-1.313,6895,74666,110233
0.37,37,12522,1,0,0,0,808.9447,874.5575,1564.78882,1687.46948,-0.03394,0.01563,1.00003,-1.383,0.77,-1.488,6895,74666,110233
0.38,38,12523,1,0,0,0,808.9447,874.5575,1564.71252,1687.46948,-0.03259,0.01453,0.99942,-1.663,0.805,-1.505,6896,74670,110241
0.39,39,12524,1,0,0,0,808.9447,874.5575,1564.94141,1687.2406,-0.03186,0.01318,1.00052,-1.628,0.508,-1.365,6896,74670,110241
0.4,40,12525,1,0,0,0,808.9447,874.32861,1564.78882,1687.69836,-0.03125,0.01282,1.00064,-1.348,0.595,-1.47,6898,74672,110244
0.41,41,12526,1,0,0,0,808.9447,874.32861,1564.55994,1687.39319,-0.03162,0.01514,0.99905,-1.313,0.63,-1.558,6898,74672,110244
0.42,42,12527,1,0,0,0,808.9447,874.32861,1564.71252,1687.08801,-0.03027,0.01746,0.99698,-1.505,0.683,-1.54,6899,74671,110247
0.43,43,12528,1,0,0,0,808.9447,874.32861,1564.63623,1687.46948,-0.02942,0.02063,0.99796,-1.715,0.683,-1.523,6899,74671,110247
0.44,44,12529,1,0,0,0,808.9447,874.32861,1564.78882,1687.31689,-0.02649,0.02539,0.99991,-1.873,0.77,-0.998,6901,74672,110249
0.45,45,12530,1,0,0,0,808.9447,874.32861,1564.78882,1687.39319,-0.02649,0.02808,1.00186,-2.223,0.718,-0.875,6901,74672,110249
0.46,46,12531,1,0,0,0,808.9447,874.32861,1564.63623,1687.31689,-0.02625,0.02588,1.00027,-2.713,0.595,-0.718,6902,74673,110256
0.47,47,12532,1,0,0,0,808.9447,874.32861,1564.78882,1687.16431,-0.02747,0.02112,0.99942,-3.115,0.77,-0.403,6902,74673,110256
0.48,48,12533,1,0,0,0,808.9447,874.32861,1564.71252,1687.08801,-0.02869,0.01672,0.99771,-3.255,0.805,-0.228,6902,74673,110256
0.49,49,12534,1,0,0,0,808.9447,874.32861,1564.78882,1687.39319,-0.0304,0.01697,1.00003,-2.835,0.753,0.21,6903,74674,110258
0.5,50,12535,1,0,0,0,808.9447,874.4812,1564.71252,1687.2406,-0.02991,0.01428,0.99954,-2.975,0.84,0.14,6907,74673,110262
0.51,51,12536,1,0,0,0,808.9447,874.4812,1564.63623,1687.31689,-0.03137,0.01233,0.99966,-3.063,0.665,0.49,6907,74673,110262
0.52,52,12537,1,0,0,0,808.9447,874.4812,1564.86511,1687.39319,-0.03174,0.0116,1.00052,-3.028,0.665,0.42,6907,74673,110262
0.53,53,12538,1,0,0,0,808.9447,874.4812,1564.78882,1687.31689,-0.03088,0.01025,1.00211,-2.835,0.49,0.403,6906,74668,110246
0.54,54,12539,1,0,0,0,808.9447,874.4812,1565.17029,1687.39319,-0.03198,0.01025,1.00027,-2.555,0.49,0.403,6906,74668,110246
0.55,55,12540,1,0,0,0,808.9447,874.4812,1564.78882,1687.46948,-0.03247,0.00989,0.99857,-2.415,0.508,0.578,6904,74667,110230
0.56,56,12541,1,0,0,0,808.9447,874.4812,1564.63623,1687.39319,-0.03491,0.01099,1.00027,-2.38,0.49,0.455,6904,74667,110230
0.57,57,12542,1,0,0,0,808.9447,874.4812,1564.71252,1687.39319,-0.03491,0.01257,0.99783,-2.345,0.508,0.578,6905,74660,110224
0.58,58,12543,1,0,0,0,808.9447,874.4812,1564.63623,1687.69836,-0.03272,0.01209,0.99759,-2.293,0.543,0.438,6905,74660,110224
0.59,59,12544,1,0,0,0,808.9447,874.4812,1564.71252,1687.46948,-0.03418,0.0116,0.99722,-2.573,0.455,0.438,6900,74661,110212
0.6,60,12545,1,0,0,0,808.9447,874.4812,1564.86511,1687.31689,-0.0354,0.00903,1.00369,-2.555,0.438,0.333,6898,74658,110200
0.61,61,12546,1,0,0,0,808.9447,874.4812,1564.48364,1687.62207,-0.03467,0.00659,1.00516,-2.503,0.473,0.368,6898,74658,110200
0.62,62,12547,1,0,0,0,808.9447,874.4812,1564.71252,1687.39319,-0.03381,0.00427,1.00467,-2.31,0.42,0.21,6898,74658,110200
0.63,63,12548,1,0,0,0,808.9447,874.4812,1564.86511,1687.39319,-0.03284,0.00439,1.00198,-1.89,0.49,0.105,6894,74655,110197
0.64,64,12549,1,0,0,0,808.9447,874.4812,1564.63623,1687.54578,-0.03516,0.00525,1.0015,-1.488,0.525,-0.053,6894,74655,110197
0.65,65,12550,1,0,0,0,808.9447,874.4812,1564.78882,1687.31689,-0.03552,0.00769,1.00076,-1.208,0.438,-0.385,6891,74649,110190
0.66,66,12551,1,0,0,0,808.9447,874.4812,1564.63623,1687.46948,-0.03674,0.00537,0.99954,-1.068,0.578,-0.525,6891,74649,110190
0.67,67,12552,1,0,0,0,808.9447,874.4812,1564.71252,1687.62207,-0.03687,0.00659,0.99857,-1.033,0.543,-0.753,6888,74649,110183
0.68,68,12553,1,0,0,0,808.9447,874.4812,1564.78882,1687.31689,-0.03626,0.0094,0.99966,-0.875,0.438,-0.893,6888,74649,110183
0.69,69,12554,1,0,0,0,808.9447,874.4812,1564.94141,1687.54578,-0.03589,0.01099,1.00259,-0.84,0.455,-0.91,6884,74641,110178
0.7,70,12555,1,0,0,0,808.9447,874.4812,1564.94141,1687.62207,-0.03394,0.01038,1.00015,-0.805,0.455,-0.98,6883,74641,110167
0.71,71,12556,1,0,0,0,808.9447,874.4812,1564.63623,1687.31689,-0.03064,0.01135,1.00027,-0.893,0.438,-0.998,6883,74641,110167
0.72,72,12557,1,0,0,0,808.9447,874.4812,1564.86511,1687.31689,-0.03015,0.01392,1.00259,-0.753,0.403,-0.945,6883,74641,110167
0.73,73,12558,1,0,0,0,808.9447,874.4812,1564.86511,1687.46948,-0.02795,0.01538,1.00052,-0.63,0.385,-0.84,6881,74640,110160
0.74,74,12559,1,0,0,0,808.9447,874.4812,1564.94141,1687.39319,-0.02759,0.01672,1.00015,-0.7,0.455,-1.068,6881,74640,110160
0.75,75,12560,1,0,0,0,809.09729,874.4812,1564.86511,1687.39319,-0.02869,0.01611,1.00003,-1.19,0.525,-0.945,6877,74631,110157
0.76,76,12561,1,0,0,0,809.09729,874.4812,1564.71252,1687.46948,-0.02844,0.01526,1.00076,-1.225,0.56,-0.91,6877,74631,110157
0.77,77,12562,1,0,0,0,809.09729,874.4812,1564.86511,1687.31689,-0.03064,0.01514,1.00089,-1.138,0.525,-0.77,6875,74636,110155
0.78,78,12563,1,0,0,0,809.09729,874.4812,1565.09399,1687.31689,-0.03064,0.01575,1.00089,-0.805,0.543,-0.683,6875,74636,110155
0.79,79,12564,1,0,0,0,809.09729,874.4812,1564.78882,1687.46948,-0.03125,0.01733,0.99942,-0.805,0.63,-0.858,6869,74636,110153
0.8,80,12565,1,0,0,0,809.09729,874.4812,1564.78882,1687.2406,-0.03186,0.01636,1.00003,-1.12,0.473,-0.525,6869,74633,110150
0.81,81,12566,1,0,0,0,809.09729,874.4812,1564.78882,1687.39319,-0.03174,0.01404,0.99966,-1.295,0.368,-0.438,6869,74633,110150
0.82,82,12567,1,0,0,0,809.09729,874.4812,1564.78882,1687.46948,-0.02954,0.01233,0.99747,-1.295,0.385,-0.49,6869,74633,110150
0.83,83,12568,1,0,0,0,809.09729,874.4812,1564.86511,1687.31689,-0.02991,0.01489,0.99942,-1.12,0.455,-0.56,6871,74631,110145
0.84,84,12569,1,0,0,0,809.09729,874.4812,1565.09399,1687.69836,-0.03162,0.01465,0.99991,-1.068,0.508,-0.543,6871,74631,110145
0.85,85,12570,1,0,0,0,808.9447,874.4812,1564.86511,1687.39319,-0.03247,0.01526,1.0015,-1.19,0.438,-0.595,6866,74628,110144
0.86,86,12571,1,0,0,0,808.9447,874.4812,1564.63623,1687.31689,-0.0332,0.01599,1.00162,-1.068,0.35,-0.543,6866,74628,110144
0.87,87,12572,1,0,0,0,808.9447,874.4812,1564.86511,1687.54578,-0.03027,0.01697,0.99942,-0.98,0.333,-0.35,6866,74625,110139
0.88,88,12573,1,0,0,0,808.9447,874.4812,1564.78882,1687.54578,-0.03052,0.01904,1.00076,-1.033,0.403,-0.403,6866,74625,110139
0.89,89,12574,1,0,0,0,808.9447,874.4812,1564.71252,1687.31689,-0.03162,0.01782,0.99942,-1.19,0.42,-0.403,6865,74625,110138
0.9,90,12575,1,0,0,0,808.9447,874.4812,1565.09399,1687.08801,-0.03076,0.01599,0.99796,-1.348,0.403,-0.105,6865,74625,110138
0.91,91,12576,1,0,0,0,808.9447,874.4812,1564.63623,1687.62207,-0.03113,0.01611,0.99918,-1.278,0.315,-0.14,6866,74624,110138
0.92,92,12577,1,0,0,0,808.9447,874.4812,1564.71252,1687.39319,-0.03088,0.01685,1.00064,-1.348,0.49,-0.228,6866,74624,110138
0.93,93,12578,1,0,0,0,808.9447,874.4812,1564.86511,1687.39319,-0.03235,0.01489,1.00345,-1.383,0.473,-0.228,6863,74619,110134
0.94,94,12579,1,0,0,0,808.9447,874.4812,1564.78882,1687.54578,-0.03296,0.01306,1.00247,-1.435,0.438,-0.175,6863,74619,110134
0.95,95,12580,1,0,0,0,808.86841,874.4812,1564.86511,1687.2406,-0.03198,0.01453,1.00064,-1.313,0.403,-0.193,6860,74620,110135
0.96,96,12581,1,0,0,0,808.86841,874.4812,1564.71252,1687.31689,-0.03162,0.01575,0.9993,-1.278,0.403,-0.263,6860,74620,110135
0.97,97,12582,1,0,0,0,808.86841,874.4812,1564.78882,1687.46948,-0.03198,0.01831,0.9993,-1.26,0.508,-0.28,6861,74617,110135
0.98,98,12583,1,0,0,0,808.86841,874.4812,1564.78882,1687.31689,-0.0304,0.01685,0.99686,-1.418,0.63,-0.333,6861,74617,110135
0.99,99,12584,1,0,0,0,808.86841,874.4812,1564.86511,1687.31689,-0.03211,0.01892,0.99857,-1.663,0.578,-0.49,6861,74615,110135
1.0,100,12585,1,0,0,0,808.86841,874.32861,1564.86511,1687.62207,-0.03027,0.0188,1.00003,-2.013,0.613,-0.315,6861,74615,110135
1.01,101,12586,1,0,0,0,808.86841,874.32861,1564.86511,1687.16431,-0.02832,0.01648,0.99857,-2.31,0.525,-0.333,6859,74614,110141
1.02,102,12587,1,0,0,0,808.86841,874.32861,1565.09399,1687.2406,-0.02844,0.01672,0.99979,-2.205,0.578,-0.245,6859,74614,110141
1.03,103,12588,1,0,0,0,808.86841,874.32861,1564.86511,1687.31689,-0.0271,0.01416,0.99966,-2.223,0.595,-0.14,6861,74614,110143
1.04,104,12589,1,0,0,0,808.86841,874.32861,1565.0177,1687.01172,-0.02857,0.01489,1.00162,-2.118,0.665,-0.175,6861,74614,110143
1.05,105,12590,1,0,0,0,809.021,874.32861,1564.78882,1687.2406,-0.02966,0.01587,1.00064,-2.1,0.613,-0.07,6861,74620,110143
1.06,106,12591,1,0,0,0,809.021,874.32861,1564.71252,1687.31689,-0.03052,0.01672,1.00137,-1.978,0.56,-0.088,6861,74620,110143
1.07,107,12592,1,0,0,0,809.021,874.32861,1564.94141,1687.16431,-0.03064,0.02002,0.99966,-2.013,0.49,-0.07,6862,74617,110151
1.08,108,12593,1,0,0,0,809.021,874.32861,1565.09399,1687.39319,-0.03052,0.01794,0.99698,-2.03,0.473,-0.07,6862,74617,110151
1.09,109,12594,1,0,0,0,809.021,874.32861,1565.0177,1687.46948,-0.03272,0.01733,0.99796,-2.065,0.525,0.035,6863,74622,110152
1.1,110,12595,1,0,0,0,809.021,874.40491,1565.0177,1687.2406,-0.03259,0.01636,0.99979,-2.275,0.595,0.088,6863,74622,110152
1.11,111,12596,1,0,0,0,809.021,874.40491,1564.94141,1687.31689,-0.03211,0.01489,0.99991,-2.38,0.578,0.14,6864,74621,110156
1.12,112,12597,1,0,0,0,809.021,874.40491,1564.94141,1687.39319,-0.03345,0.00989,1.00223,-2.538,0.508,0.018,6864,74621,110156
1.13,113,12598,1,0,0,0,809.021,874.40491,1564.78882,1687.54578,-0.03418,0.00891,1.00345,-2.258,0.438,0.088,6863,74621,110159
1.14,114,12599,1,0,0,0,809.021,874.40491,1564.94141,1687.62207,-0.03308,0.00769,1.0004,-2.083,0.56,-0.053,6863,74621,110159
1.15,115,12600,1,0,0,0,808.86841,874.40491,1565.0177,1687.69836,-0.03381,0.00952,1.0004,-1.855,0.578,0.0,6866,74624,110164
1.16,116,12601,1,0,0,0,808.86841,874.40491,1564.48364,1687.39319,-0.0343,0.01111,1.00076,-1.593,0.543,-0.175,6866,74624,110164
1.17,117,12602,1,0,0,0,808.86841,874.40491,1564.71252,1687.39319,-0.03381,0.01221,1.00015,-1.698,0.543,-0.613,6867,74624,110171
1.18,118,12603,1,0,0,0,808.86841,874.40491,1564.71252,1687.54578,-0.0332,0.01221,0.99966,-1.75,0.56,-0.735,6867,74624,110171
1.19,119,12604,1,0,0,0,808.86841,874.40491,1564.78882,1687.2406,-0.03259,0.0127,1.00064,-1.68,0.63,-0.753,6869,74619,110166
1.2,120,12605,1,0,0,0,808.86841,874.4812,1564.94141,1687.2406,-0.03272,0.01404,0.99979,-1.505,0.613,-0.578,6869,74619,110166
1.21,121,12606,1,0,0,0,808.86841,874.4812,1564.55994,1687.46948,-0.03101,0.01575,0.99966,-1.505,0.648,-0.858,6871,74619,110170
1.22,122,12607,1,0,0,0,808.86841,874.4812,1564.55994,1687.2406,-0.0304,0.01563,0.99869,-1.768,0.595,-0.875,6871,74619,110170
1.23,123,12608,1,0,0,0,808.86841,874.4812,1564.71252,1687.31689,-0.03064,0.01575,1.00015,-2.135,0.718,-1.138,6872,74618,110176
1.24,124,12609,1,0,0,0,808.86841,874.4812,1564.63623,1687.46948,-0.03211,0.01502,1.00333,-2.31,0.718,-1.068,6872,74618,110176
1.25,125,12610,1,0,0,0,809.021,874.4812,1564.86511,1687.31689,-0.02905,0.01245,1.00198,-2.153,0.665,-1.015,6872,74624,110182
1.26,126,12611,1,0,0,0,809.021,874.4812,1564.78882,1687.39319,-0.02991,0.01404,1.00076,-1.995,0.648,-0.91,6872,74624,110182
1.27,127,12612,1,0,0,0,809.021,874.4812,1564.86511,1687.39319,-0.0293,0.01489,0.99966,-1.733,0.543,-0.788,6873,74625,110179
1.28,128,12613,1,0,0,0,809.021,874.4812,1564.78882,1687.46948,-0.03125,0.01782,0.99979,-1.453,0.56,-0.7,6873,74625,110179
1.29,129,12614,1,0,0,0,809.021,874.4812,1564.94141,1687.46948,-0.03308,0.01929,1.00003,-1.68,0.613,-0.63,6876,74618,110179
1.3,130,12615,1,0,0,0,809.021,874.32861,1564.86511,1687.54578,-0.03345,0.0188,1.00137,-1.75,0.578,-0.63,6876,74618,110179
1.31,131,12616,1,0,0,0,809.021,874.32861,1564.71252,1687.2406,-0.03333,0.01575,0.99942,-1.995,0.665,-0.63,6877,74620,110185
1.32,132,12617,1,0,0,0,809.021,874.32861,1565.09399,1687.39319,-0.03235,0.01318,0.99979,-2.083,0.648,-0.718,6877,74620,110185
1.33,133,12618,1,0,0,0,809.021,874.32861,1564.86511,1687.46948,-0.0343,0.01209,1.00076,-1.908,0.7,-0.683,6877,74626,110192
1.34,134,12619,1,0,0,0,809.021,874.32861,1564.94141,1687.16431,-0.03381,0.01331,1.00174,-1.943,0.77,-0.823,6877,74626,110192
1.35,135,12620,1,0,0,0,808.86841,874.32861,1564.78882,1687.2406,-0.03101,0.01282,0.99893,-1.768,0.63,-0.91,6882,74630,110198
1.36,136,12621,1,0,0,0,808.86841,874.32861,1564.63623,1687.54578,-0.03211,0.01477,1.00125,-1.698,0.56,-0.84,6882,74630,110198
1.37,137,12622,1,0,0,0,808.86841,874.32861,1564.86511,1687.2406,-0.03113,0.01563,0.99905,-1.75,0.543,-0.823,6885,74629,110201
1.38,138,12623,1,0,0,0,808.86841,874.32861,1564.86511,1687.31689,-0.03076,0.01648,0.99881,-1.89,0.735,-0.858,6885,74629,110201
1.39,139,12624,1,0,0,0,808.86841,874.32861,1564.78882,1687.62207,-0.03198,0.01709,0.99979,-2.205,0.7,-0.613,6887,74626,110200
1.4,140,12625,1,0,0,0,808.86841,874.40491,1564.78882,1687.31689,-0.0315,0.01611,0.9993,-2.24,0.63,-0.718,6887,74626,110200
1.41,141,12626,1,0,0,0,808.86841,874.40491,1564.71252,1687.46948,-0.03137,0.01587,1.00174,-2.048,0.595,-0.648,6885,74626,110199
1.42,142,12627,1,0,0,0,808.86841,874.40491,1564.71252,1687.62207,-0.03052,0.01526,1.00064,-1.873,0.595,-0.42,6885,74626,110199
1.43,143,12628,1,0,0,0,808.86841,874.40491,1564.71252,1687.39319,-0.03003,0.01648,1.0004,-1.925,0.35,-0.158,6887,74628,110204
1.44,144,12629,1,0,0,0,808.86841,874.40491,1564.94141,1687.54578,-0.03088,0.01648,1.00064,-1.89,0.403,-0.07,6887,74628,110204
1.45,145,12630,1,0,0,0,808.86841,874.40491,1564.86511,1687.46948,-0.03174,0.01599,0.99979,-2.048,0.403,0.105,6893,74628,110204
1.46,146,12631,1,0,0,0,808.86841,874.40491,1564.55994,1687.16431,-0.03357,0.0166,1.00052,-2.17,0.49,-0.018,6893,74628,110204
1.47,147,12632,1,0,0,0,808.86841,874.40491,1564.78882,1687.08801,-0.03369,0.01526,0.99966,-2.24,0.578,-0.088,6893,74624,110209
1.48,148,12633,1,0,0,0,808.86841,874.40491,1564.78882,1687.54578,-0.03491,0.01343,0.99869,-2.188,0.49,-0.053,6893,74624,110209
1.49,149,12634,1,0,0,0,808.86841,874.40491,1564.78882,1687.31689,-0.03357,0.01306,0.9993,-2.38,0.49,-0.105,6898,74627,110211
1.5,150,12635,1,0,0,0,808.86841,874.5575,1565.0177,1687.2406,-0.03211,0.01257,0.9993,-2.608,0.455,-0.07,6898,74627,110211
1.51,151,12636,1,0,0,0,808.86841,874.5575,1564.71252,1687.46948,-0.0293,0.01477,0.99808,-2.643,0.49,-0.07,6895,74626,110217
1.52,152,12637,1,0,0,0,808.86841,874.5575,1564.78882,1687.2406,-0.02954,0.0144,1.00027,-2.573,0.508,0.263,6895,74626,110217
1.53,153,12638,1,0,0,0,808.86841,874.5575,1564.86511,1687.31689,-0.03174,0.01379,1.00113,-2.8,0.665,0.07,6897,74624,110221
1.54,154,12639,1,0,0,0,808.86841,874.5575,1564.71252,1687.31689,-0.03345,0.01184,1.0015,-2.783,0.56,0.123,6897,74624,110221
1.55,155,12640,1,0,0,0,808.9447,874.5575,1564.78882,1687.2406,-0.03308,0.01318,1.0004,-2.66,0.455,0.14,6898,74626,110223
1.56,156,12641,1,0,0,0,808.9447,874.5575,1564.63623,1687.2406,-0.03406,0.01453,1.0004,-2.153,0.525,0.175,6898,74626,110223
1.57,157,12642,1,0,0,0,808.9447,874.5575,1564.78882,1687.46948,-0.03296,0.01587,0.99954,-2.013,0.525,0.105,6903,74627,110219
1.58,158,12643,1,0,0,0,808.9447,874.5575,1564.86511,1686.93542,-0.03235,0.0166,1.00015,-2.153,0.543,0.228,6903,74627,110219
1.59,159,12644,1,0,0,0,808.9447,874.5575,1564.86511,1687.31689,-0.02844,0.01245,0.99991,-2.608,0.35,0.385,6902,74623,110211
1.6,160,12645,1,0,0,0,808.9447,874.4812,1564.71252,1687.54578,-0.02844,0.01233,1.00052,-2.643,0.315,0.28,6902,74623,110211
1.61,161,12646,1,0,0,0,808.9447,874.4812,1564.78882,1687.01172,-0.02918,0.0105,1.00272,-2.345,0.368,0.298,6902,74621,110204
1.62,162,12647,1,0,0,0,808.9447,874.4812,1564.94141,1687.16431,-0.02954,0.00928,1.00076,-2.328,0.525,0.28,6902,74621,110204
1.63,163,12648,1,0,0,0,808.9447,874.4812,1564.86511,1687.46948,-0.03284,0.0072,1.00089,-2.398,0.403,0.298,6901,74622,110193
1.64,164,12649,1,0,0,0,808.9447,874.4812,1564.78882,1687.31689,-0.0332,0.00745,0.99881,-2.1,0.543,-0.14,6901,74622,110193
1.65,165,12650,1,0,0,0,809.24988,874.4812,1564.94141,1687.2406,-0.03455,0.00806,0.99979,-2.03,0.578,-0.158,6900,74620,110186
1.66,166,12651,1,0,0,0,809.24988,874.4812,1564.71252,1687.46948,-0.03613,0.00855,1.00015,-1.925,0.56,-0.14,6900,74620,110186
1.67,167,12652,1,0,0,0,809.24988,874.4812,1564.94141,1687.2406,-0.0365,0.00781,0.99991,-1.943,0.595,-0.14,6895,74619,110187
1.68,168,12653,1,0,0,0,809.24988,874.4812,1565.0177,1687.31689,-0.03613,0.00916,1.00052,-1.978,0.578,-0.053,6895,74619,110187
1.69,169,12654,1,0,0,0,809.24988,874.4812,1564.86511,1687.46948,-0.03662,0.01062,1.00223,-1.768,0.49,-0.35,6895,74616,110178
1.7,170,12655,1,0,0,0,809.24988,874.4812,1564.86511,1687.16431,-0.03418,0.00952,1.00015,-1.698,0.49,-0.28,6895,74616,110178
1.71,171,12656,1,0,0,0,809.24988,874.4812,1564.71252,1687.62207,-0.03259,0.00928,1.0015,-1.873,0.49,-0.403,6889,74613,110175
1.72,172,12657,1,0,0,0,809.24988,874.4812,1564.63623,1687.62207,-0.03076,0.01013,1.0004,-1.505,0.438,-0.543,6889,74613,110175
1.73,173,12658,1,0,0,0,809.24988,874.4812,1564.78882,1687.31689,-0.03052,0.01123,1.00247,-1.435,0.438,-0.368,6888,74611,110170
1.74,174,12659,1,0,0,0,809.24988,874.4812,1564.78882,1687.31689,-0.03064,0.01257,1.00162,-1.645,0.455,-0.525,6888,74611,110170
1.75,175,12660,1,0,0,0,808.79211,874.4812,1564.94141,1687.46948,-0.02918,0.01001,1.0004,-1.558,0.42,-0.788,6886,74610,110163
1.76,176,12661,1,0,0,0,808.79211,874.4812,1564.48364,1687.39319,-0.02991,0.01111,1.00015,-1.523,0.455,-0.49,6886,74610,110163
1.77,177,12662,1,0,0,0,808.79211,874.4812,1564.78882,1687.2406,-0.03064,0.00977,0.99869,-1.575,0.543,-0.648,6884,74606,110161
1.78,178,12663,1,0,0,0,808.79211,874.4812,1564.78882,1687.46948,-0.03125,0.01123,1.00027,-1.435,0.42,-0.7,6884,74606,110161
1.79,179,12664,1,0,0,0,808.79211,874.4812,1564.78882,1687.31689,-0.0315,0.01196,1.00027,-1.435,0.455,-0.595,6883,74605,110159
1.8,180,12665,1,0,0,0,808.79211,874.4812,1564.94141,1687.39319,-0.03198,0.01086,0.99869,-1.523,0.473,-0.683,6883,74605,110159
1.81,181,12666,1,0,0,0,808.79211,874.4812,1564.71252,1687.54578,-0.03406,0.01209,0.99991,-1.628,0.595,-0.7,6880,74608,110159
1.82,182,12667,1,0,0,0,808.79211,874.4812,1564.78882,1687.46948,-0.03345,0.01074,0.99905,-1.523,0.578,-0.56,6880,74608,110159
1.83,183,12668,1,0,0,0,808.79211,874.4812,1564.63623,1688.30872,-0.03442,0.01367,1.00064,-1.278,0.49,-0.42,6879,74606,110161
1.84,184,12669,1,0,0,0,808.79211,874.4812,1564.94141,1687.46948,-0.03259,0.01416,1.00162,-1.19,0.42,-0.525,6879,74606,110161
1.85,185,12670,1,0,0,0,809.021,874.4812,1564.94141,1687.31689,-0.03272,0.01575,0.99979,-1.103,0.403,-0.403,6878,74603,110159
1.86,186,12671,1,0,0,0,809.021,874.4812,1564.94141,1687.39319,-0.02954,0.01563,0.99966,-1.383,0.403,-0.42,6878,74603,110159
1.87,187,12672,1,0,0,0,809.021,874.4812,1564.94141,1687.46948,-0.02905,0.01514,0.99942,-1.453,0.385,-0.49,6877,74602,110155
1.88,188,12673,1,0,0,0,809.021,874.4812,1564.86511,1687.39319,-0.02783,0.01306,0.9982,-1.61,0.455,-0.543,6877,74602,110155
1.89,189,12674,1,0,0,0,809.021,874.4812,1565.17029,1687.31689,-0.02905,0.01123,1.00101,-1.61,0.49,-0.403,6874,74605,110158
1.9,190,12675,1,0,0,0,809.021,874.32861,1564.94141,1687.62207,-0.03125,0.01086,1.00272,-1.575,0.525,-0.263,6874,74605,110158
1.91,191,12676,1,0,0,0,809.021,874.32861,1564.78882,1687.16431,-0.03174,0.01245,1.00247,-1.295,0.403,-0.42,6875,74604,110160
1.92,192,12677,1,0,0,0,809.021,874.32861,1564.94141,1687.39319,-0.03308,0.01465,0.99991,-1.33,0.49,-0.35,6875,74604,110160
1.93,193,12678,1,0,0,0,809.021,874.32861,1564.78882,1687.54578,-0.03113,0.01563,0.99673,-1.4,0.508,-0.403,6875,74603,110157
1.94,194,12679,1,0,0,0,809.021,874.32861,1564.94141,1687.31689,-0.03455,0.01636,0.99844,-1.453,0.42,-0.105,6875,74603,110157
1.95,195,12680,1,0,0,0,809.09729,874.32861,1564.94141,1687.2406,-0.03516,0.01465,1.00052,-1.75,0.455,-0.035,6875,74604,110162
1.96,196,12681,1,0,0,0,809.09729,874.32861,1564.71252,1687.54578,-0.03247,0.01367,0.99979,-1.61,0.42,-0.088,6875,74604,110162
1.97,197,12682,1,0,0,0,809.09729,874.32861,1564.86511,1687.2406,-0.03211,0.01221,1.00198,-1.523,0.438,-0.175,6876,74604,110166
1.98,198,12683,1,0,0,0,809.09729,874.32861,1564.78882,1687.31689,-0.03211,0.01038,1.00186,-1.523,0.473,-0.088,6876,74604,110166
1.99,199,12684,1,0,0,0,809.09729,874.32861,1564.78882,1687.77466,-0.03272,0.01184,1.00296,-1.645,0.42,-0.053,6872,74600,110165
2.0,200,12685,1,0,0,0,809.09729,874.40491,1564.94141,1687.16431,-0.03015,0.01367,1.00015,-1.4,0.385,-0.07,6872,74600,110165
2.01,201,12686,1,0,0,0,809.09729,874.40491,1564.94141,1687.39319,-0.02869,0.0144,0.99796,-1.4,0.315,-0.193,6875,74600,110162
2.02,202,12687,1,0,0,0,809.09729,874.40491,1564.78882,1687.62207,-0.03015,0.01611,0.9993,-1.558,0.455,-0.053,6875,74600,110162
2.03,203,12688,1,0,0,0,809.09729,874.40491,1564.86511,1687.46948,-0.03125,0.0144,0.99722,-1.785,0.56,-0.158,6880,74601,110170
2.04,204,12689,1,0,0,0,809.09729,874.40491,1564.86511,1687.46948,-0.03211,0.01392,0.99991,-2.118,0.525,-0.21,6880,74601,110170
2.05,205,12690,1,0,0,0,809.021,874.40491,1564.94141,1687.69836,-0.03162,0.0083,1.00357,-2.188,0.49,-0.245,6878,74601,110174
2.06,206,12691,1,0,0,0,809.021,874.40491,1564.55994,1687.2406,-0.03003,0.00623,1.00113,-1.995,0.438,-0.088,6878,74601,110174
2.07,207,12692,1,0,0,0,809.021,874.40491,1564.94141,1687.46948,-0.03247,0.00647,1.00162,-1.82,0.385,-0.105,6879,74604,110181
2.08,208,12693,1,0,0,0,809.021,874.40491,1564.78882,1687.62207,-0.03137,0.00855,1.00015,-1.523,0.473,-0.28,6879,74604,110181
2.09,209,12694,1,0,0,0,809.021,874.40491,1564.78882,1687.39319,-0.03552,0.01563,1.00687,-1.19,0.455,-0.35,6879,74606,110184
2.1,210,12695,1,0,0,0,809.021,874.5575,1564.86511,1687.31689,-0.03198,0.01526,0.99393,-1.348,0.7,-0.718,6879,74606,110184
2.11,211,12696,1,0,0,0,809.021,874.5575,1564.71252,1687.62207,-0.03113,0.01086,0.99979,-2.17,0.245,-0.455,6880,74604,110189
2.12,212,12697,1,0,0,0,809.021,874.5575,1564.78882,1687.2406,-0.03394,0.00757,1.00113,-2.38,0.525,-0.718,6880,74604,110189
2.13,213,12698,1,0,0,0,809.021,874.5575,1564.94141,1687.39319,-0.03723,0.00366,1.00174,-1.82,0.753,-0.42,6883,74604,110191
2.14,214,12699,1,0,0,0,809.021,874.5575,1564.78882,1687.54578,-0.03442,0.00635,1.00162,-1.068,0.613,-0.403,6883,74604,110191
2.15,215,12700,1,0,0,0,808.86841,874.5575,1564.63623,1687.46948,-0.03247,0.01575,1.00015,-0.473,0.438,-0.665,6883,74607,110197
2.16,216,12701,1,0,0,0,808.86841,874.5575,1564.63623,1687.46948,-0.03491,0.01587,0.99686,-0.805,0.543,-0.14,6883,74607,110197
2.17,217,12702,1,0,0,0,808.86841,874.5575,1564.86511,1687.46948,-0.03345,0.0166,0.99759,-0.98,0.298,-0.403,6886,74610,110202
2.18,218,12703,1,0,0,0,808.86841,874.5575,1564.78882,1687.2406,-0.03211,0.01758,0.99918,-1.12,0.315,-0.648,6886,74610,110202
2.19,219,12704,1,0,0,0,808.86841,874.5575,1565.70435,1687.85095,-0.03076,0.01599,1.00015,-1.295,0.368,-0.455,6887,74608,110201
2.2,220,12705,1,0,0,0,808.86841,874.5575,1564.86511,1687.69836,-0.02942,0.0144,1.00052,-1.313,0.385,-0.245,6887,74608,110201
2.21,221,12706,1,0,0,0,808.86841,874.5575,1564.78882,1687.46948,-0.02942,0.0144,1.00052,-1.313,0.385,-0.245,6889,74608,110202
2.22,222,12707,1,0,0,0,808.86841,874.5575,1564.86511,1687.39319,-0.02832,0.0166,0.99979,-1.278,0.385,-0.193,6889,74608,110202
2.23,223,12708,1,0,0,0,808.86841,874.5575,1564.78882,1687.69836,-0.02881,0.01587,0.9982,-1.26,0.49,-0.28,6891,74612,110210
2.24,224,12709,1,0,0,0,808.86841,874.5575,1564.78882,1687.39319,-0.02966,0.01746,0.99979,-1.47,0.525,-0.088,6891,74612,110210
2.25,225,12710,1,0,0,0,809.021,874.5575,1564.78882,1687.31689,-0.03211,0.0177,1.00125,-1.488,0.473,0.123,6892,74614,110223
2.26,226,12711,1,0,0,0,809.021,874.5575,1564.48364,1687.62207,-0.03137,0.01709,1.00027,-1.628,0.508,-0.035,6892,74614,110223
2.27,227,12712,1,0,0,0,809.021,874.5575,1564.71252,1687.46948,-0.03015,0.0155,0.99869,-1.908,0.403,0.053,6892,74618,110228
2.28,228,12713,1,0,0,0,809.021,874.5575,1564.71252,1687.46948,-0.03284,0.01355,1.00003,-2.065,0.525,0.0,6892,74618,110228
2.29,229,12714,1,0,0,0,809.021,874.5575,1564.71252,1687.54578,-0.03284,0.01233,1.00003,-2.188,0.578,0.018,6896,74619,110234
2.3,230,12715,1,0,0,0,809.021,874.4812,1564.86511,1687.31689,-0.03394,0.01245,1.00308,-2.048,0.595,-0.088,6896,74619,110234
2.31,231,12716,1,0,0,0,809.021,874.4812,1564.48364,1687.54578,-0.03223,0.01184,1.0004,-1.943,0.595,-0.07,6899,74617,110238
2.32,232,12717,1,0,0,0,809.021,874.4812,1564.55994,1687.54578,-0.0332,0.01514,1.00003,-1.75,0.543,-0.053,6899,74617,110238
2.33,233,12718,1,0,0,0,809.021,874.4812,1564.55994,1687.39319,-0.03259,0.0144,1.00027,-1.628,0.543,-0.088,6902,74620,110243
2.34,234,12719,1,0,0,0,809.021,874.4812,1564.55994,1687.54578,-0.03272,0.01318,1.00089,-1.838,0.473,-0.245,6902,74620,110243
2.35,235,12720,1,0,0,0,808.79211,874.4812,1564.78882,1687.69836,-0.03198,0.01221,0.99966,-1.873,0.525,-0.175,6903,74623,110255
2.36,236,12721,1,0,0,0,808.79211,874.4812,1564.33105,1687.54578,-0.03308,0.01343,1.00027,-1.715,0.455,-0.315,6903,74623,110255
2.37,237,12722,1,0,0,0,808.79211,874.4812,1564.71252,1687.62207,-0.03113,0.0155,1.0004,-1.645,0.49,-0.158,6907,74628,110259
2.38,238,12723,1,0,0,0,808.79211,874.4812,1564.78882,1687.77466,-0.03101,0.01611,1.0004,-1.768,0.543,-0.228,6907,74628,110259
2.39,239,12724,1,0,0,0,808.79211,874.4812,1564.71252,1687.39319,-0.03137,0.01477,1.0004,-1.995,0.648,-0.438,6908,74627,110265
2.4,240,12725,1,0,0,0,808.79211,874.63379,1564.86511,1687.54578,-0.03027,0.01209,0.99966,-2.065,0.683,-0.333,6908,74627,110265
2.41,241,12726,1,0,0,0,808.79211,874.63379,1564.78882,1687.77466,-0.03113,0.01465,1.0032,-1.908,0.613,-0.368,6913,74625,110268
2.42,242,12727,1,0,0,0,808.79211,874.63379,1564.86511,1687.46948,-0.02893,0.01343,0.99991,-1.978,0.56,-0.56,6913,74625,110268
2.43,243,12728,1,0,0,0,808.79211,874.63379,1564.94141,1687.62207,-0.0293,0.01209,0.99918,-1.96,0.543,-0.35,6912,74629,110278
2.44,244,12729,1,0,0,0,808.79211,874.63379,1564.78882,1687.62207,-0.03088,0.01172,1.00027,-1.908,0.56,-0.455,6912,74629,110278
2.45,245,12730,1,0,0,0,808.86841,874.63379,1564.78882,1687.54578,-0.0315,0.01379,0.99991,-1.68,0.63,-0.525,6914,74632,110283
2.46,246,12731,1,0,0,0,808.86841,874.63379,1564.71252,1687.46948,-0.03235,0.01489,0.9982,-1.68,0.7,-0.385,6914,74632,110283
2.47,247,12732,1,0,0,0,808.86841,874.63379,1564.86511,1687.54578,-0.03479,0.01477,0.99954,-1.698,0.788,-0.63,6920,74633,110288
2.48,248,12733,1,0,0,0,808.86841,874.63379,1564.78882,1687.39319,-0.03345,0.01465,1.00101,-1.855,0.525,-0.595,6920,74633,110288
2.49,249,12734,1,0,0,0,808.86841,874.63379,1565.0177,1687.39319,-0.03052,0.01453,1.0004,-1.855,0.473,-0.543,6922,74635,110288
2.5,250,12735,1,0,0,0,808.86841,874.40491,1564.78882,1687.69836,-0.03076,0.01404,0.99893,-1.855,0.525,-0.438,6922,74635,110288
2.51,251,12736,1,0,0,0,808.86841,874.40491,1564.71252,1687.46948,-0.02844,0.01489,0.99893,-1.838,0.578,-0.438,6923,74636,110296
2.52,252,12737,1,0,0,0,808.86841,874.40491,1564.71252,1687.46948,-0.02832,0.01477,1.00125,-1.89,0.63,-0.473,6923,74636,110296
2.53,253,12738,1,0,0,0,808.86841,874.40491,1564.78882,1688.5376,-0.03247,0.01514,1.00198,-2.013,0.613,-0.473,6926,74637,110303
2.54,254,12739,1,0,0,0,808.86841,874.40491,1564.71252,1687.46948,-0.03418,0.01306,1.00027,-2.083,0.63,-0.315,6926,74637,110303
2.55,255,12740,1,0,0,0,809.021,874.40491,1564.86511,1687.31689,-0.03394,0.01233,0.99979,-2.048,0.595,-0.193,6928,74639,110309
2.56,256,12741,1,0,0,0,809.021,874.40491,1564.48364,1687.69836,-0.03406,0.01282,0.99979,-1.768,0.595,-0.193,6928,74639,110309
2.57,257,12742,1,0,0,0,809.021,874.40491,1564.78882,1687.46948,-0.03296,0.01416,1.00003,-1.61,0.473,-0.21,6932,74641,110311
2.58,258,12743,1,0,0,0,809.021,874.40491,1564.78882,1687.92725,-0.03333,0.0127,1.00052,-1.908,0.578,-0.245,6932,74641,110311
2.59,259,12744,1,0,0,0,809.021,874.40491,1564.71252,1687.77466,-0.03418,0.01001,1.00076,-1.82,0.473,-0.263,6938,74639,110303
2.6,260,12745,1,0,0,0,809.021,874.5575,1564.86511,1687.39319,-0.03223,0.00806,1.00101,-1.68,0.35,-0.28,6938,74639,110303
2.61,261,12746,1,0,0,0,809.021,874.5575,1564.78882,1687.69836,-0.03052,0.0094,1.00064,-1.47,0.368,-0.28,6936,74636,110289
2.62,262,12747,1,0,0,0,809.021,874.5575,1564.63623,1687.62207,-0.02832,0.01282,0.99942,-1.155,0.49,-0.455,6936,74636,110289
2.63,263,12748,1,0,0,0,809.021,874.5575,1564.63623,1687.54578,-0.0304,0.01575,1.00015,-1.348,0.49,-0.42,6933,74635,110284
2.64,264,12749,1,0,0,0,809.021,874.5575,1564.71252,1687.54578,-0.0332,0.01648,1.00064,-1.54,0.49,-0.525,6933,74635,110284
2.65,265,12750,1,0,0,0,808.86841,874.5575,1564.71252,1687.54578,-0.03272,0.0155,0.99954,-1.575,0.578,-0.438,6932,74634,110280
2.66,266,12751,1,0,0,0,808.86841,874.5575,1564.40735,1687.54578,-0.03247,0.01379,1.0004,-1.698,0.613,-0.455,6932,74634,110280
2.67,267,12752,1,0,0,0,808.86841,874.5575,1564.71252,1687.46948,-0.03223,0.01172,0.99979,-1.593,0.613,-0.613,6928,74633,110273
2.68,268,12753,1,0,0,0,808.86841,874.5575,1564.71252,1687.62207,-0.03406,0.01111,1.00076,-1.54,0.63,-0.543,6928,74633,110273
2.69,269,12754,1,0,0,0,808.86841,874.5575,1564.63623,1687.46948,-0.03357,0.01221,0.99893,-1.138,0.42,-0.438,6928,74633,110272
2.7,270,12755,1,0,0,0,808.86841,874.4812,1564.55994,1687.46948,-0.03272,0.01257,0.99857,-1.085,0.455,-0.56,6928,74633,110272
2.71,271,12756,1,0,0,0,808.86841,874.4812,1564.55994,1687.39319,-0.03345,0.01489,0.99966,-0.945,0.525,-0.613,6925,74628,110271
2.72,272,12757,1,0,0,0,808.86841,874.4812,1564.71252,1687.2406,-0.03186,0.01721,0.9993,-1.05,0.56,-0.578,6925,74628,110271
2.73,273,12758,1,0,0,0,808.86841,874.4812,1564.78882,1687.39319,-0.03259,0.01733,1.00003,-1.085,0.455,-0.718,6925,74628,110271
2.74,274,12759,1,0,0,0,808.86841,874.4812,1564.63623,1687.54578,-0.02991,0.01367,0.99991,-1.278,0.403,-0.595,6923,74629,110265
2.75,275,12760,1,0,0,0,808.86841,874.4812,1564.63623,1687.46948,-0.02954,0.01416,1.00015,-1.138,0.368,-0.56,6923,74628,110264
2.76,276,12761,1,0,0,0,808.86841,874.4812,1564.71252,1687.46948,-0.03064,0.01563,1.00052,-1.12,0.595,-0.648,6923,74628,110264
2.77,277,12762,1,0,0,0,808.86841,874.4812,1564.71252,1687.69836,-0.03088,0.01648,1.00015,-1.278,0.578,-0.788,6923,74628,110264
2.78,278,12763,1,0,0,0,808.86841,874.4812,1564.71252,1687.31689,-0.03003,0.01672,0.99857,-1.4,0.56,-0.683,6921,74628,110266
2.79,279,12764,1,0,0,0,808.86841,874.4812,1564.71252,1687.77466,-0.02942,0.01794,1.00076,-1.348,0.28,-0.63,6921,74628,110266
2.8,280,12765,1,0,0,0,808.86841,874.63379,1564.71252,1688.23242,-0.03003,0.01843,1.00076,-1.383,0.385,-0.578,6920,74627,110258
2.81,281,12766,1,0,0,0,808.86841,874.63379,1564.40735,1687.54578,-0.03198,0.01709,0.99979,-1.523,0.438,-0.595,6920,74627,110258
2.82,282,12767,1,0,0,0,808.86841,874.63379,1564.71252,1687.54578,-0.03308,0.01538,0.99966,-1.715,0.403,-0.49,6918,74625,110266
2.83,283,12768,1,0,0,0,808.86841,874.63379,1564.48364,1687.69836,-0.03357,0.01379,0.99991,-1.68,0.595,-0.525,6918,74625,110266
2.84,284,12769,1,0,0,0,808.86841,874.63379,1564.63623,1687.39319,-0.03284,0.01733,1.0004,-1.225,0.49,-0.543,6918,74628,110265
2.85,285,12770,1,0,0,0,808.86841,874.63379,1564.71252,1687.39319,-0.0332,0.01782,0.99966,-1.173,0.455,-0.595,6918,74628,110267
2.86,286,12771,1,0,0,0,808.86841,874.63379,1564.33105,1687.77466,-0.03467,0.01856,1.00027,-1.278,0.333,-0.473,6918,74628,110267
2.87,287,12772,1,0,0,0,808.86841,874.63379,1564.71252,1687.46948,-0.0332,0.01782,0.99979,-1.33,0.28,-0.228,6918,74628,110267
2.88,288,12773,1,0,0,0,808.86841,874.63379,1564.71252,1687.54578,-0.03052,0.01843,0.99991,-1.4,0.42,-0.228,6918,74628,110269
2.89,289,12774,1,0,0,0,808.86841,874.63379,1564.48364,1687.77466,-0.02857,0.01733,1.00052,-1.68,0.42,-0.158,6918,74628,110269
2.9,290,12775,1,0,0,0,808.86841,874.40491,1564.63623,1687.39319,-0.0282,0.01587,1.00089,-1.75,0.473,-0.315,6918,74626,110269
2.91,291,12776,1,0,0,0,808.86841,874.40491,1564.40735,1687.54578,-0.03101,0.01672,1.00308,-1.698,0.49,-0.28,6918,74626,110269
2.92,292,12777,1,0,0,0,808.86841,874.40491,1564.55994,1687.69836,-0.02966,0.01599,1.00186,-1.593,0.438,-0.245,6914,74624,110267
2.93,293,12778,1,0,0,0,808.86841,874.40491,1564.55994,1687.46948,-0.03003,0.01697,1.00052,-1.698,0.403,-0.333,6914,74624,110267
2.94,294,12779,1,0,0,0,808.86841,874.40491,1564.94141,1687.62207,-0.03259,0.01892,1.00174,-1.54,0.42,-0.298,6915,74626,110269
2.95,295,12780,1,0,0,0,809.021,874.40491,1564.78882,1687.69836,-0.03381,0.01868,0.99954,-1.803,0.525,-0.14,6916,74623,110267
2.96,296,12781,1,0,0,0,809.021,874.40491,1564.48364,1687.54578,-0.03137,0.01636,0.99698,-1.768,0.455,-0.14,6916,74623,110267
2.97,297,12782,1,0,0,0,809.021,874.40491,1564.78882,1687.54578,-0.03235,0.01709,1.00003,-1.663,0.455,0.0,6916,74623,110267
2.98,298,12783,1,0,0,0,809.021,874.40491,1564.71252,1687.69836,-0.03296,0.01624,0.99954,-1.82,0.49,-0.018,6918,74626,110264
2.99,299,12784,1,0,0,0,809.021,874.40491,1564.78882,1687.39319,-0.03284,0.01563,0.99991,-1.925,0.49,-0.193,6918,74626,110264
3.0,300,12785,1,0,0,0,809.021,874.78638,1564.78882,1687.46948,-0.03125,0.01428,1.0004,-1.768,0.49,-0.21,6912,74623,110268
3.01,301,12786,1,0,0,0,809.021,874.78638,1564.55994,1687.54578,-0.03015,0.01416,1.0004,-1.645,0.508,-0.35,6912,74623,110268
3.02,302,12787,1,0,0,0,809.021,874.78638,1564.78882,1687.31689,-0.03223,0.01672,1.00272,-1.593,0.455,-0.385,6917,74624,110272
3.03,303,12788,1,0,0,0,809.021,874.78638,1564.78882,1687.46948,-0.03101,0.01611,1.00113,-1.523,0.438,-0.21,6917,74624,110272
3.04,304,12789,1,0,0,0,809.021,874.78638,1564.71252,1687.62207,-0.02857,0.01538,0.99734,-1.383,0.525,-0.263,6917,74627,110268
3.05,305,12790,1,0,0,0,808.79211,874.78638,1564.63623,1687.31689,-0.03076,0.01843,0.99991,-1.278,0.56,-0.298,6917,74624,110271
3.06,306,12791,1,0,0,0,808.79211,874.78638,1564.63623,1687.46948,-0.03223,0.01941,0.99979,-1.453,0.613,-0.455,6917,74624,110271
3.07,307,12792,1,0,0,0,808.79211,874.78638,1564.71252,1687.62207,-0.03113,0.01746,0.99783,-1.785,0.473,-0.333,6917,74624,110271
3.08,308,12793,1,0,0,0,808.79211,874.78638,1564.63623,1687.39319,-0.03088,0.01685,0.99954,-1.908,0.508,-0.14,6921,74624,110273
3.09,309,12794,1,0,0,0,808.79211,874.78638,1564.78882,1687.54578,-0.03088,0.01611,1.0015,-2.013,0.49,0.0,6921,74624,110273
3.1,310,12795,1,0,0,0,808.79211,874.5575,1564.78882,1687.54578,-0.02991,0.0155,1.0004,-1.873,0.473,-0.21,6919,74620,110269
3.11,311,12796,1,0,0,0,808.79211,874.5575,1564.48364,1687.54578,-0.03015,0.01575,0.99966,-1.978,0.578,-0.298,6919,74620,110269
3.12,312,12797,1,0,0,0,808.79211,874.5575,1564.78882,1687.62207,-0.03125,0.01636,1.00027,-1.768,0.49,-0.28,6921,74620,110270
3.13,313,12798,1,0,0,0,808.79211,874.5575,1564.63623,1687.85095,-0.03088,0.01599,0.99979,-1.663,0.508,-0.368,6921,74620,110270
3.14,314,12799,1,0,0,0,808.79211,874.5575,1564.63623,1687.77466,-0.03088,0.01611,0.99881,-1.558,0.595,-0.263,6924,74625,110277
3.15,315,12800,1,0,0,0,809.021,874.5575,1564.86511,1687.54578,-0.03247,0.01807,0.99954,-1.733,0.595,-0.315,6924,74625,110277
3.16,316,12801,1,0,0,0,809.021,874.5575,1564.55994,1687.85095,-0.03308,0.01672,1.0004,-1.733,0.543,-0.42,6924,74622,110277
3.17,317,12802,1,0,0,0,809.021,874.5575,1564.71252,1687.54578,-0.03137,0.01563,1.0004,-1.838,0.56,-0.228,6924,74622,110277
3.18,318,12803,1,0,0,0,809.021,874.5575,1565.0177,1687.62207,-0.03113,0.01465,1.00027,-1.785,0.56,-0.28,6923,74620,110278
3.19,319,12804,1,0,0,0,809.021,874.5575,1564.63623,1687.92725,-0.03137,0.01502,1.00015,-1.628,0.525,-0.333,6923,74620,110278
3.2,320,12805,1,0,0,0,809.021,874.5575,1564.55994,1687.54578,-0.03064,0.01721,0.9982,-1.47,0.455,-0.315,6924,74623,110279
3.21,321,12806,1,0,0,0,809.021,874.5575,1564.40735,1687.46948,-0.03198,0.01782,0.99881,-1.47,0.508,-0.385,6924,74623,110279
3.22,322,12807,1,0,0,0,809.021,874.5575,1564.55994,1687.69836,-0.03003,0.01794,0.99869,-1.54,0.525,-0.315,6924,74619,110274
3.23,323,12808,1,0,0,0,809.021,874.5575,1564.55994,1687.46948,-0.0315,0.01929,1.00015,-1.768,0.595,-0.42,6924,74619,110274
3.24,324,12809,1,0,0,0,809.021,874.5575,1564.71252,1687.46948,-0.03027,0.01758,1.00027,-1.873,0.56,-0.298,6927,74621,110283
3.25,325,12810,1,0,0,0,808.86841,874.5575,1564.63623,1688.07983,-0.02893,0.01599,0.99942,-1.698,0.42,-0.385,6927,74621,110283
3.26,326,12811,1,0,0,0,808.86841,874.5575,1564.55994,1687.39319,-0.02844,0.01794,1.00089,-1.54,0.315,-0.175,6932,74616,110284
3.27,327,12812,1,0,0,0,808.86841,874.5575,1564.71252,1687.39319,-0.02942,0.01697,0.99893,-1.663,0.403,-0.263,6932,74616,110284
3.28,328,12813,1,0,0,0,808.86841,874.5575,1564.71252,1687.54578,-0.0315,0.01709,1.00064,-1.803,0.578,-0.315,6928,74620,110284
3.29,329,12814,1,0,0,0,808.86841,874.5575,1564.63623,1687.31689,-0.03027,0.01636,1.00064,-1.82,0.595,-0.315,6928,74620,110284
3.3,330,12815,1,0,0,0,808.86841,874.63379,1564.55994,1687.46948,-0.03003,0.0166,0.99759,-1.96,0.595,-0.175,6931,74620,110290
3.31,331,12816,1,0,0,0,808.86841,874.63379,1564.48364,1687.46948,-0.03259,0.01758,0.99857,-2.083,0.648,-0.315,6931,74620,110290
3.32,332,12817,1,0,0,0,808.86841,874.63379,1564.63623,1687.46948,-0.03162,0.01648,0.99771,-2.17,0.613,-0.438,6932,74618,110289
3.33,333,12818,1,0,0,0,808.86841,874.63379,1564.63623,1689.22424,-0.03174,0.01575,1.00003,-2.223,0.578,-0.438,6932,74618,110289
3.34,334,12819,1,0,0,0,808.86841,874.63379,1564.63623,1688.61389,-0.03247,0.01587,1.00052,-1.995,0.578,-0.42,6934,74618,110286
3.35,335,12820,1,0,0,0,808.79211,874.63379,1564.71252,1688.5376,-0.0293,0.01685,0.99844,-1.68,0.543,-0.49,6934,74618,110286
3.36,336,12821,1,0,0,0,808.79211,874.63379,1564.71252,1688.5376,-0.02979,0.0188,1.00015,-1.803,0.595,-0.63,6934,74621,110289
3.37,337,12822,1,0,0,0,808.79211,874.63379,1564.55994,1688.69019,-0.03101,0.0199,1.00076,-1.925,0.49,-0.578,6934,74621,110289
3.38,338,12823,1,0,0,0,808.79211,874.63379,1564.63623,1688.4613,-0.03211,0.0188,1.00137,-1.873,0.473,-0.473,6936,74618,110291
3.39,339,12824,1,0,0,0,808.79211,874.63379,1564.48364,1687.46948,-0.03003,0.01611,1.00125,-2.048,0.385,-0.403,6936,74618,110291
3.4,340,12825,1,0,0,0,808.79211,874.4812,1564.63623,1687.46948,-0.03088,0.01453,1.00064,-1.943,0.438,-0.42,6937,74614,110292
3.41,341,12826,1,0,0,0,808.79211,874.4812,1564.25476,1687.39319,-0.02966,0.01428,0.99881,-1.698,0.595,-0.263,6937,74614,110292
3.42,342,12827,1,0,0,0,808.79211,874.4812,1564.71252,1687.54578,-0.03174,0.0155,0.99966,-1.628,0.525,-0.28,6940,74617,110296
3.43,343,12828,1,0,0,0,808.79211,874.4812,1564.40735,1687.46948,-0.03052,0.01563,0.99905,-1.873,0.473,-0.14,6940,74617,110296
3.44,344,12829,1,0,0,0,808.79211,874.4812,1564.48364,1687.62207,-0.03162,0.01746,1.00052,-1.75,0.438,-0.228,6940,74612,110294
3.45,345,12830,1,0,0,0,808.86841,874.4812,1564.71252,1687.2406,-0.03259,0.01733,1.00101,-1.663,0.543,-0.298,6940,74612,110294
3.46,346,12831,1,0,0,0,808.86841,874.4812,1564.33105,1687.39319,-0.03381,0.01733,1.00162,-1.663,0.595,-0.228,6943,74613,110301
3.47,347,12832,1,0,0,0,808.86841,874.4812,1564.40735,1687.2406,-0.03223,0.01563,0.99979,-1.75,0.49,-0.35,6943,74613,110301
3.48,348,12833,1,0,0,0,808.86841,874.4812,1564.55994,1687.2406,-0.0315,0.01477,0.99869,-1.698,0.508,-0.21,6943,74615,110304
3.49,349,12834,1,0,0,0,808.86841,874.4812,1564.48364,1687.46948,-0.03284,0.01563,1.00076,-1.75,0.578,-0.455,6943,74615,110304
3.5,350,12835,1,0,0,0,808.86841,874.40491,1564.63623,1687.31689,-0.03174,0.01514,0.99966,-1.733,0.543,-0.473,6945,74615,110303
3.51,351,12836,1,0,0,0,808.86841,874.40491,1564.48364,1687.31689,-0.03088,0.01514,0.9982,-1.733,0.543,-0.543,6945,74615,110303
3.52,352,12837,1,0,0,0,808.86841,874.40491,1564.63623,1687.46948,-0.03052,0.01978,0.99954,-1.505,0.595,-0.385,6949,74614,110304
3.53,353,12838,1,0,0,0,808.86841,874.40491,1564.71252,1687.31689,-0.03052,0.02112,1.00089,-1.4,0.578,-0.21,6949,74614,110304
3.54,354,12839,1,0,0,0,808.86841,874.40491,1564.94141,1687.2406,-0.03064,0.02295,1.0043,-1.75,0.543,-0.298,6947,74611,110307
3.55,355,12840,1,0,0,0,808.86841,874.40491,1564.78882,1687.54578,-0.02954,0.01929,1.00235,-1.995,0.508,-0.21,6947,74611,110307
3.56,356,12841,1,0,0,0,808.86841,874.40491,1564.55994,1687.31689,-0.03125,0.01514,1.00174,-2.275,0.49,-0.175,6948,74610,110312
3.57,357,12842,1,0,0,0,808.86841,874.40491,1564.71252,1687.2406,-0.0332,0.0155,1.00101,-1.89,0.63,-0.14,6948,74610,110312
3.58,358,12843,1,0,0,0,808.86841,874.40491,1564.71252,1687.46948,-0.03259,0.01526,1.00052,-1.558,0.508,-0.123,6952,74617,110312
3.59,359,12844,1,0,0,0,808.86841,874.40491,1564.71252,1687.31689,-0.03589,0.01697,1.00089,-1.453,0.403,-0.245,6952,74617,110312
3.6,360,12845,1,0,0,0,808.86841,874.71008,1564.78882,1687.31689,-0.03442,0.01697,0.99869,-1.575,0.49,-0.193,6952,74619,110312
3.61,361,12846,1,0,0,0,808.86841,874.71008,1564.48364,1687.62207,-0.03284,0.01587,0.99942,-1.558,0.315,-0.158,6952,74619,110312
3.62,362,12847,1,0,0,0,808.86841,874.71008,1564.78882,1687.31689,-0.02832,0.01563,1.00052,-1.715,0.42,-0.158,6954,74609,110301
3.63,363,12848,1,0,0,0,808.86841,874.71008,1564.71252,1687.31689,-0.02844,0.01306,1.0004,-1.61,0.403,-0.35,6954,74609,110301
3.64,364,12849,1,0,0,0,808.86841,874.71008,1564.63623,1687.54578,-0.02857,0.01367,0.99979,-1.523,0.49,-0.438,6953,74608,110284
3.65,365,12850,1,0,0,0,808.86841,874.71008,1564.71252,1687.16431,-0.03076,0.0166,1.00052,-1.488,0.403,-0.42,6953,74608,110284
3.66,366,12851,1,0,0,0,808.86841,874.71008,1564.55994,1687.31689,-0.03052,0.01807,1.00027,-1.435,0.438,-0.595,6948,74606,110277
3.67,367,12852,1,0,0,0,808.86841,874.71008,1564.63623,1687.46948,-0.03174,0.02002,0.99991,-1.383,0.455,-0.525,6948,74606,110277
3.68,368,12853,1,0,0,0,808.86841,874.71008,1564.63623,1687.31689,-0.03284,0.02026,0.99796,-1.733,0.473,-0.21,6947,74605,110270
3.69,369,12854,1,0,0,0,808.86841,874.71008,1564.55994,1687.54578,-0.03259,0.01856,0.99869,-1.785,0.525,-0.455,6947,74605,110270
3.7,370,12855,1,0,0,0,808.86841,874.4812,1564.71252,1688.07983,-0.03491,0.01599,0.99966,-1.803,0.455,-0.263,6947,74601,110265
3.71,371,12856,1,0,0,0,808.86841,874.4812,1564.48364,1687.39319,-0.03198,0.01379,0.99905,-1.768,0.578,-0.49,6947,74601,110265
3.72,372,12857,1,0,0,0,808.86841,874.4812,1564.78882,1687.46948,-0.03076,0.01355,1.00027,-1.698,0.508,-0.333,6944,74599,110257
3.73,373,12858,1,0,0,0,808.86841,874.4812,1564.63623,1687.62207,-0.03174,0.01477,1.00064,-1.61,0.665,-0.42,6944,74599,110257
3.74,374,12859,1,0,0,0,808.86841,874.4812,1564.71252,1687.54578,-0.03101,0.01587,1.00027,-1.68,0.578,-0.508,6941,74597,110252
3.75,375,12860,1,0,0,0,808.9447,874.4812,1564.78882,1687.62207,-0.03162,0.01709,1.00162,-1.663,0.42,-0.525,6941,74597,110252
3.76,376,12861,1,0,0,0,808.9447,874.4812,1564.55994,1687.62207,-0.03052,0.01685,0.99991,-1.698,0.508,-0.525,6938,74597,110247
3.77,377,12862,1,0,0,0,808.9447,874.4812,1564.63623,1687.46948,-0.03052,0.01794,1.00015,-1.645,0.56,-0.578,6938,74597,110247
3.78,378,12863,1,0,0,0,808.9447,874.4812,1564.78882,1687.54578,-0.03015,0.01685,1.00027,-1.75,0.455,-0.525,6935,74591,110242
3.79,379,12864,1,0,0,0,808.9447,874.4812,1564.71252,1687.69836,-0.03125,0.01563,0.99979,-1.663,0.543,-0.525,6935,74591,110242
3.8,380,12865,1,0,0,0,808.9447,874.4812,1564.71252,1687.54578,-0.03333,0.01685,1.0004,-1.523,0.595,-0.455,6932,74592,110238
3.81,381,12866,1,0,0,0,808.9447,874.4812,1564.48364,1687.46948,-0.0315,0.01526,0.99857,-1.593,0.525,-0.49,6932,74592,110238
3.82,382,12867,1,0,0,0,808.9447,874.4812,1564.78882,1687.77466,-0.03137,0.01599,1.00015,-1.715,0.543,-0.77,6930,74589,110229
3.83,383,12868,1,0,0,0,808.9447,874.4812,1564.78882,1687.31689,-0.03076,0.01502,1.00076,-1.628,0.385,-0.508,6930,74589,110229
3.84,384,12869,1,0,0,0,808.9447,874.4812,1564.78882,1687.39319,-0.0315,0.01526,1.00003,-1.785,0.473,-0.525,6927,74586,110224
3.85,385,12870,1,0,0,0,808.79211,874.4812,1564.63623,1687.77466,-0.03235,0.01685,1.0015,-1.61,0.473,-0.63,6927,74586,110224
3.86,386,12871,1,0,0,0,808.79211,874.4812,1564.55994,1687.31689,-0.03296,0.02087,1.00211,-1.383,0.595,-0.735,6925,74579,110223
3.87,387,12872,1,0,0,0,808.79211,874.4812,1565.55176,1688.15613,-0.0304,0.021,1.00064,-1.208,0.525,-0.578,6925,74579,110223
3.88,388,12873,1,0,0,0,808.79211,874.4812,1564.71252,1687.54578,-0.03186,0.0221,0.99844,-1.19,0.543,-0.403,6921,74580,110219
3.89,389,12874,1,0,0,0,808.79211,874.4812,1564.71252,1687.54578,-0.03064,0.02002,0.99844,-1.803,0.455,-0.333,6921,74580,110219
3.9,390,12875,1,0,0,0,808.79211,874.71008,1564.78882,1687.54578,-0.02991,0.01856,0.99857,-2.118,0.49,-0.21,6922,74578,110216
3.91,391,12876,1,0,0,0,808.79211,874.71008,1564.55994,1687.62207,-0.03052,0.01685,0.99991,-2.205,0.403,-0.21,6922,74578,110216
3.92,392,12877,1,0,0,0,808.79211,874.71008,1564.78882,1687.46948,-0.02966,0.0155,1.00027,-1.995,0.28,-0.333,6923,74573,110212
3.93,393,12878,1,0,0,0,808.79211,874.71008,1564.86511,1687.77466,-0.02954,0.01563,1.00089,-1.855,0.385,-0.368,6923,74573,110212
3.94,394,12879,1,0,0,0,808.79211,874.71008,1564.78882,1687.77466,-0.03076,0.0166,1.00162,-1.803,0.613,-0.175,6919,74572,110208
3.95,395,12880,1,0,0,0,808.86841,874.71008,1564.78882,1687.54578,-0.03186,0.01758,1.00076,-1.768,0.49,-0.298,6919,74572,110208
3.96,396,12881,1,0,0,0,808.86841,874.71008,1564.63623,1687.62207,-0.03101,0.01746,0.99905,-1.733,0.525,-0.193,6917,74568,110202
3.97,397,12882,1,0,0,0,808.86841,874.71008,1564.55994,1687.85095,-0.0315,0.01746,0.99796,-1.75,0.473,-0.158,6917,74568,110202
3.98,398,12883,1,0,0,0,808.86841,874.71008,1564.55994,1687.62207,-0.03259,0.01794,0.99881,-1.803,0.473,-0.368,6916,74569,110203
3.99,399,12884,1,0,0,0,808.86841,874.71008,1564.78882,1687.62207,-0.03284,0.01782,0.99857,-1.89,0.508,-0.28,6916,74569,110203
4.0,400,12885,1,0,0,0,808.86841,874.4812,1564.78882,1687.77466,-0.03223,0.0177,1.00015,-2.03,0.455,-0.28,6918,74567,110204
4.01,401,12886,1,0,0,0,808.86841,874.4812,1564.33105,1687.62207,-0.03186,0.0144,0.99942,-1.96,0.473,-0.193,6918,74567,110204
4.02,402,12887,1,0,0,0,808.86841,874.4812,1564.63623,1687.69836,-0.03198,0.01599,1.00198,-1.803,0.42,-0.193,6915,74562,110201
4.03,403,12888,1,0,0,0,808.86841,874.4812,1564.48364,1688.07983,-0.03137,0.01514,1.00186,-1.505,0.473,-0.385,6915,74562,110201
4.04,404,12889,1,0,0,0,808.86841,874.4812,1564.63623,1687.85095,-0.02954,0.01624,0.99966,-1.645,0.543,-0.123,6914,74564,110207
4.05,405,12890,1,0,0,0,808.9447,874.4812,1564.78882,1687.92725,-0.02979,0.01746,1.00015,-1.768,0.543,-0.158,6914,74564,110207
4.06,406,12891,1,0,0,0,808.9447,874.4812,1564.63623,1687.85095,-0.03162,0.01526,0.99991,-1.838,0.403,-0.333,6915,74562,110209
4.07,407,12892,1,0,0,0,808.9447,874.4812,1564.71252,1687.62207,-0.02942,0.01599,0.99881,-1.803,0.403,-0.403,6915,74562,110209
4.08,408,12893,1,0,0,0,808.9447,874.4812,1564.86511,1687.69836,-0.03162,0.0166,1.00003,-1.68,0.49,-0.105,6914,74565,110210
4.09,409,12894,1,0,0,0,808.9447,874.4812,1564.55994,1687.92725,-0.03333,0.01807,1.00027,-1.733,0.595,-0.175,6914,74565,110210
4.1,410,12895,1,0,0,0,808.9447,874.71008,1564.71252,1687.69836,-0.03272,0.01782,1.00003,-1.803,0.543,-0.385,6917,74560,110208
4.11,411,12896,1,0,0,0,808.9447,874.71008,1564.63623,1687.69836,-0.03308,0.01685,0.99991,-1.715,0.49,-0.28,6917,74560,110208
4.12,412,12897,1,0,0,0,808.9447,874.71008,1564.63623,1687.85095,-0.0304,0.01636,0.9982,-1.698,0.473,-0.245,6918,74561,110213
4.13,413,12898,1,0,0,0,808.9447,874.71008,1564.63623,1687.77466,-0.03186,0.01758,1.00015,-1.663,0.455,-0.263,6918,74561,110213
4.14,414,12899,1,0,0,0,808.9447,874.71008,1564.78882,1687.85095,-0.03162,0.01697,1.0004,-1.75,0.455,-0.14,6915,74563,110212
4.15,415,12900,1,0,0,0,808.86841,874.71008,1564.71252,1688.15613,-0.03247,0.01758,1.00137,-1.75,0.438,-0.385,6915,74563,110212
4.16,416,12901,1,0,0,0,808.86841,874.71008,1564.55994,1687.69836,-0.03052,0.01733,1.00027,-1.785,0.438,-0.368,6916,74565,110213
4.17,417,12902,1,0,0,0,808.86841,874.71008,1564.86511,1687.69836,-0.02905,0.01587,0.99832,-1.89,0.385,-0.333,6916,74565,110213
4.18,418,12903,1,0,0,0,808.86841,874.71008,1564.63623,1687.77466,-0.03235,0.01746,1.00259,-1.855,0.42,-0.368,6918,74565,110221
4.19,419,12904,1,0,0,0,808.86841,874.71008,1564.71252,1687.62207,-0.03284,0.01538,1.00064,-1.873,0.49,-0.333,6918,74565,110221
4.2,420,12905,1,0,0,0,808.86841,874.71008,1564.71252,1687.77466,-0.03137,0.01453,0.99869,-1.61,0.49,-0.508,6916,74563,110219
4.21,421,12906,1,0,0,0,808.86841,874.71008,1564.40735,1687.85095,-0.03223,0.01636,0.99991,-1.435,0.63,-0.473,6916,74563,110219
4.22,422,12907,1,0,0,0,808.86841,874.71008,1564.55994,1687.54578,-0.03137,0.01794,0.99954,-1.523,0.56,-0.385,6918,74561,110220
4.23,423,12908,1,0,0,0,808.86841,874.71008,1564.71252,1687.69836,-0.03296,0.02002,1.00198,-1.593,0.525,-0.473,6918,74561,110220
4.24,424,12909,1,0,0,0,808.86841,874.71008,1564.63623,1687.85095,-0.03125,0.01904,1.00003,-1.505,0.368,-0.525,6917,74562,110221
4.25,425,12910,1,0,0,0,808.79211,874.71008,1564.63623,1687.46948,-0.02857,0.0177,0.99905,-1.75,0.455,-0.403,6917,74562,110221
4.26,426,12911,1,0,0,0,808.79211,874.71008,1564.71252,1687.77466,-0.03027,0.01831,0.99991,-1.733,0.49,-0.368,6922,74560,110223
4.27,427,12912,1,0,0,0,808.79211,874.71008,1564.78882,1688.00354,-0.03064,0.01794,0.99979,-1.75,0.543,-0.28,6922,74560,110223
4.28,428,12913,1,0,0,0,808.79211,874.71008,1564.63623,1688.23242,-0.03186,0.01636,1.00076,-1.838,0.543,-0.543,6924,74561,110226
4.29,429,12914,1,0,0,0,808.79211,874.71008,1564.86511,1687.77466,-0.03027,0.01587,1.00064,-1.873,0.49,-0.473,6924,74561,110226
4.3,430,12915,1,0,0,0,808.79211,874.4812,1564.71252,1687.62207,-0.03113,0.01758,1.00027,-1.575,0.508,-0.158,6926,74563,110235
4.31,431,12916,1,0,0,0,808.79211,874.4812,1564.48364,1687.69836,-0.03137,0.01831,0.99966,-1.558,0.578,-0.21,6926,74563,110235
4.32,432,12917,1,0,0,0,808.79211,874.4812,1564.78882,1687.85095,-0.03137,0.01904,0.99869,-1.663,0.543,-0.42,6923,74566,110236
4.33,433,12918,1,0,0,0,808.79211,874.4812,1564.63623,1687.85095,-0.03198,0.01892,0.99991,-1.908,0.438,-0.35,6923,74566,110236
4.34,434,12919,1,0,0,0,808.79211,874.4812,1564.63623,1687.62207,-0.03027,0.01758,0.99869,-1.96,0.473,-0.385,6923,74569,110243
4.35,435,12920,1,0,0,0,809.09729,874.4812,1564.63623,1687.62207,-0.03162,0.01575,0.99954,-1.978,0.595,-0.298,6923,74569,110243
4.36,436,12921,1,0,0,0,809.09729,874.4812,1564.63623,1687.92725,-0.03308,0.01575,1.00076,-1.96,0.403,-0.158,6926,74566,110246
4.37,437,12922,1,0,0,0,809.09729,874.4812,1564.63623,1687.54578,-0.0332,0.0144,1.00052,-2.03,0.56,-0.42,6926,74566,110246
4.38,438,12923,1,0,0,0,809.09729,874.4812,1564.78882,1687.69836,-0.03223,0.01526,1.00076,-1.978,0.595,-0.315,6929,74564,110245
4.39,439,12924,1,0,0,0,809.09729,874.4812,1564.71252,1687.69836,-0.03064,0.0144,0.99808,-1.873,0.543,-0.175,6929,74564,110245
4.4,440,12925,1,0,0,0,809.09729,874.71008,1564.63623,1687.69836,-0.03296,0.01672,1.00162,-1.698,0.56,-0.49,6928,74563,110249
4.41,441,12926,1,0,0,0,809.09729,874.71008,1564.48364,1687.46948,-0.03186,0.01733,1.0004,-1.54,0.543,-0.455,6928,74563,110249
4.42,442,12927,1,0,0,0,809.09729,874.71008,1564.71252,1687.77466,-0.03101,0.01782,0.9982,-1.593,0.543,-0.473,6931,74562,110252
4.43,443,12928,1,0,0,0,809.09729,874.71008,1564.63623,1687.54578,-0.0293,0.01758,0.9982,-1.68,0.455,-0.28,6931,74562,110252
4.44,444,12929,1,0,0,0,809.09729,874.71008,1564.78882,1687.62207,-0.03003,0.01758,0.99942,-1.68,0.473,-0.35,6935,74566,110251
4.45,445,12930,1,0,0,0,808.79211,874.71008,1564.71252,1687.85095,-0.03076,0.01648,0.99966,-1.873,0.455,-0.263,6935,74566,110251
4.46,446,12931,1,0,0,0,808.79211,874.71008,1564.63623,1687.62207,-0.0315,0.01636,1.00162,-1.785,0.508,-0.28,6934,74566,110261
4.47,447,12932,1,0,0,0,808.79211,874.71008,1564.71252,1687.62207,-0.03076,0.01587,1.00003,-1.698,0.63,-0.385,6934,74566,110261
4.48,448,12933,1,0,0,0,808.79211,874.71008,1564.63623,1687.85095,-0.03137,0.01611,0.99991,-1.645,0.49,-0.455,6937,74565,110258
4.49,449,12934,1,0,0,0,808.79211,874.71008,1564.63623,1687.62207,-0.03064,0.01575,0.99954,-1.663,0.403,-0.42,6937,74565,110258
4.5,450,12935,1,0,0,0,808.79211,874.63379,1564.71252,1687.54578,-0.03113,0.01831,0.99979,-1.663,0.613,-0.28,6939,74566,110262
4.51,451,12936,1,0,0,0,808.79211,874.63379,1564.33105,1687.92725,-0.0304,0.01807,0.99918,-1.663,0.578,-0.245,6939,74566,110262
4.52,452,12937,1,0,0,0,808.79211,874.63379,1564.63623,1687.62207,-0.03088,0.01807,1.00089,-1.575,0.385,-0.158,6938,74564,110269
4.53,453,12938,1,0,0,0,808.79211,874.63379,1564.55994,1687.77466,-0.03137,0.01746,1.00052,-1.628,0.525,-0.193,6938,74564,110269
4.54,454,12939,1,0,0,0,808.79211,874.63379,1564.55994,1687.85095,-0.03247,0.01721,1.0004,-1.61,0.543,-0.368,6941,74563,110263
4.55,455,12940,1,0,0,0,808.79211,874.63379,1564.71252,1687.54578,-0.03137,0.01636,0.99881,-1.61,0.473,-0.403,6941,74563,110263
4.56,456,12941,1,0,0,0,808.79211,874.63379,1564.55994,1687.69836,-0.03101,0.01685,0.99881,-1.61,0.473,-0.403,6943,74565,110267
4.57,457,12942,1,0,0,0,808.79211,874.63379,1564.48364,1687.85095,-0.03186,0.01819,1.0004,-1.803,0.665,-0.228,6943,74565,110267
4.58,458,12943,1,0,0,0,808.79211,874.63379,1564.40735,1687.62207,-0.03125,0.01953,1.00052,-1.855,0.665,-0.385,6942,74562,110272
4.59,459,12944,1,0,0,0,808.79211,874.63379,1564.71252,1687.69836,-0.03015,0.02002,1.00089,-1.75,0.49,-0.21,6942,74562,110272
4.6,460,12945,1,0,0,0,808.79211,874.4812,1564.71252,1687.77466,-0.02844,0.02161,0.99954,-1.68,0.49,-0.123,6946,74565,110279
4.61,461,12946,1,0,0,0,808.79211,874.4812,1564.33105,1687.69836,-0.0293,0.02075,1.00015,-1.943,0.508,-0.123,6946,74565,110279
4.62,462,12947,1,0,0,0,808.79211,874.4812,1564.55994,1687.54578,-0.03381,0.01502,0.99966,-2.363,0.63,-0.385,6946,74568,110280
4.63,463,12948,1,0,0,0,808.79211,874.4812,1564.63623,1687.77466,-0.03394,0.01392,0.99918,-2.293,0.578,-0.228,6946,74568,110280
4.64,464,12949,1,0,0,0,808.79211,874.4812,1564.63623,1687.46948,-0.03406,0.01453,1.00101,-2.083,0.56,-0.088,6950,74565,110279
4.65,465,12950,1,0,0,0,809.021,874.4812,1564.86511,1687.54578,-0.03516,0.0166,1.0015,-1.82,0.56,-0.158,6950,74565,110279
4.66,466,12951,1,0,0,0,809.021,874.4812,1564.63623,1687.92725,-0.03442,0.01807,1.00076,-1.663,0.543,-0.105,6951,74559,110276
4.67,467,12952,1,0,0,0,809.021,874.4812,1564.71252,1687.62207,-0.03308,0.01733,1.00613,-1.75,0.525,-0.263,6951,74559,110276
4.68,468,12953,1,0,0,0,809.021,874.4812,1564.71252,1687.69836,-0.02966,0.01392,1.0043,-1.61,0.438,-0.14,6949,74558,110262
4.69,469,12954,1,0,0,0,809.021,874.4812,1564.71252,1687.77466,-0.02783,0.01257,1.00198,-1.348,0.368,-0.298,6949,74558,110262
4.7,470,12955,1,0,0,0,809.021,874.71008,1564.63623,1687.69836,-0.02686,0.01416,1.00003,-1.068,0.595,-0.228,6948,74555,110242
4.71,471,12956,1,0,0,0,809.021,874.71008,1564.55994,1687.62207,-0.02808,0.01929,0.9993,-0.963,0.595,-0.105,6948,74555,110242
4.72,472,12957,1,0,0,0,809.021,874.71008,1564.63623,1687.77466,-0.03186,0.02258,0.99771,-1.348,0.84,-0.263,6949,74551,110226
4.73,473,12958,1,0,0,0,809.021,874.71008,1564.63623,1687.62207,-0.0332,0.02149,0.99832,-1.715,0.7,-0.228,6949,74551,110226
4.74,474,12959,1,0,0,0,809.021,874.71008,1564.71252,1687.69836,-0.03345,0.01953,0.9993,-1.943,0.613,-0.193,6948,74548,110216
4.75,475,12960,1,0,0,0,808.86841,874.71008,1564.78882,1687.69836,-0.03418,0.01758,1.00015,-2.013,0.543,-0.228,6948,74548,110216
4.76,476,12961,1,0,0,0,808.86841,874.71008,1564.55994,1687.54578,-0.03125,0.01489,0.99771,-1.995,0.595,-0.245,6942,74541,110207
4.77,477,12962,1,0,0,0,808.86841,874.71008,1564.71252,1687.69836,-0.03272,0.01233,1.00052,-1.943,0.543,-0.543,6942,74541,110207
4.78,478,12963,1,0,0,0,808.86841,874.71008,1564.55994,1688.4613,-0.03223,0.01196,0.9993,-1.768,0.595,-0.315,6940,74539,110199
4.79,479,12964,1,0,0,0,808.86841,874.71008,1564.71252,1687.62207,-0.03247,0.0144,1.00015,-1.663,0.543,-0.525,6940,74539,110199
4.8,480,12965,1,0,0,0,808.86841,874.63379,1564.71252,1687.46948,-0.03198,0.01721,1.00027,-1.75,0.648,-0.613,6938,74537,110191
4.81,481,12966,1,0,0,0,808.86841,874.63379,1564.40735,1687.85095,-0.03516,0.01831,1.00064,-1.593,0.648,-0.648,6938,74537,110191
4.82,482,12967,1,0,0,0,808.86841,874.63379,1564.71252,1687.62207,-0.03296,0.01794,0.99942,-1.785,0.665,-0.665,6936,74534,110187
4.83,483,12968,1,0,0,0,808.86841,874.63379,1564.63623,1687.62207,-0.02954,0.01489,0.99979,-1.663,0.578,-0.648,6936,74534,110187
4.84,484,12969,1,0,0,0,808.86841,874.63379,1564.63623,1687.77466,-0.03308,0.0144,1.00272,-1.803,0.525,-0.77,6938,74531,110182
4.85,485,12970,1,0,0,0,808.86841,874.63379,1564.78882,1687.54578,-0.03247,0.01453,1.00369,-1.505,0.455,-0.805,6938,74531,110182
4.86,486,12971,1,0,0,0,808.86841,874.63379,1564.63623,1687.69836,-0.03333,0.01672,1.00137,-1.418,0.543,-0.823,6933,74527,110174
4.87,487,12972,1,0,0,0,808.86841,874.63379,1564.71252,1687.92725,-0.03027,0.01575,0.99857,-1.208,0.508,-0.753,6933,74527,110174
4.88,488,12973,1,0,0,0,808.86841,874.63379,1564.78882,1687.69836,-0.03003,0.01904,0.99844,-1.278,0.455,-0.91,6927,74524,110169
4.89,489,12974,1,0,0,0,808.86841,874.63379,1564.78882,1687.62207,-0.03259,0.01941,1.00027,-1.278,0.595,-0.928,6927,74524,110169
4.9,490,12975,1,0,0,0,808.86841,874.63379,1564.71252,1687.85095,-0.0332,0.0188,0.99991,-1.505,0.63,-0.788,6924,74520,110160
4.91,491,12976,1,0,0,0,808.86841,874.63379,1564.48364,1687.54578,-0.03198,0.01758,0.9982,-1.645,0.578,-0.665,6924,74520,110160
4.92,492,12977,1,0,0,0,808.86841,874.63379,1564.55994,1687.54578,-0.0343,0.01904,1.00003,-1.488,0.473,-0.56,6922,74517,110151
4.93,493,12978,1,0,0,0,808.86841,874.63379,1564.71252,1687.62207,-0.03272,0.02124,0.99991,-1.348,0.63,-0.63,6922,74517,110151
4.94,494,12979,1,0,0,0,808.86841,874.63379,1564.63623,1687.46948,-0.0315,0.02014,0.99796,-1.295,0.56,-0.49,6919,74514,110156
4.95,495,12980,1,0,0,0,809.021,874.63379,1564.78882,1687.69836,-0.03174,0.02173,0.99942,-1.418,0.525,-0.525,6919,74514,110156
4.96,496,12981,1,0,0,0,809.021,874.63379,1564.71252,1687.62207,-0.02881,0.02063,1.00003,-1.855,0.473,-0.578,6919,74511,110153
4.97,497,12982,1,0,0,0,809.021,874.63379,1564.71252,1687.39319,-0.03064,0.0199,1.00125,-1.978,0.298,-0.508,6919,74511,110153
4.98,498,12983,1,0,0,0,809.021,874.63379,1564.78882,1687.39319,-0.02686,0.02075,1.00027,-1.768,0.578,-0.49,6919,74511,110153
4.99,499,12984,1,0,0,0,809.021,874.63379,1564.71252,1687.69836,-0.02808,0.0199,1.00113,-1.96,0.595,-0.42,6915,74514,110147
5.0,500,12985,1,0,0,0,809.021,874.5575,1564.71252,1687.54578,-0.02942,0.02051,1.00357,-1.873,0.543,-0.368,6916,74508,110143
5.01,501,12986,1,0,0,0,809.021,874.5575,1564.71252,1687.62207,-0.03076,0.01782,1.00272,-1.995,0.613,-0.368,6916,74508,110143
5.02,502,12987,1,0,0,0,809.021,874.5575,1564.78882,1687.69836,-0.03064,0.01563,1.00003,-1.995,0.665,-0.438,6916,74508,110143
5.03,503,12988,1,0,0,0,809.021,874.5575,1564.71252,1687.54578,-0.03394,0.01746,1.00003,-1.873,0.49,-0.385,6913,74506,110146
5.04,504,12989,1,0,0,0,809.021,874.5575,1565.0177,1687.69836,-0.03528,0.01746,0.99893,-1.68,0.508,-0.385,6913,74506,110146
5.05,505,12990,1,0,0,0,808.9447,874.5575,1564.78882,1687.69836,-0.03577,0.01917,0.99918,-1.715,0.508,-0.403,6914,74506,110145
5.06,506,12991,1,0,0,0,808.9447,874.5575,1564.40735,1687.62207,-0.03491,0.01856,0.99954,-1.768,0.42,-0.333,6914,74506,110145
5.07,507,12992,1,0,0,0,808.9447,874.5575,1564.63623,1687.77466,-0.03418,0.0166,0.99881,-1.838,0.543,-0.42,6909,74503,110147
5.08,508,12993,1,0,0,0,808.9447,874.5575,1564.55994,1687.69836,-0.03613,0.01721,1.0015,-1.855,0.543,-0.333,6909,74503,110147
5.09,509,12994,1,0,0,0,808.9447,874.5575,1564.63623,1687.54578,-0.03345,0.01758,1.00198,-1.645,0.438,-0.455,6910,74506,110148
5.1,510,12995,1,0,0,0,808.9447,874.63379,1564.78882,1687.39319,-0.03064,0.01709,1.00027,-1.558,0.42,-0.49,6912,74505,110149
5.11,511,12996,1,0,0,0,808.9447,874.63379,1564.40735,1687.69836,-0.03027,0.01782,1.00137,-1.488,0.473,-0.35,6912,74505,110149
5.12,512,12997,1,0,0,0,808.9447,874.63379,1564.55994,1687.54578,-0.02954,0.01904,1.00101,-1.4,0.438,-0.14,6912,74505,110149
5.13,513,12998,1,0,0,0,808.9447,874.63379,1564.55994,1687.69836,-0.03003,0.02026,1.00027,-1.488,0.385,-0.298,6912,74504,110151
5.14,514,12999,1,0,0,0,808.9447,874.63379,1564.63623,1687.85095,-0.03101,0.01733,0.99918,-1.61,0.438,-0.403,6912,74504,110151
5.15,515,13000,1,0,0,0,808.86841,874.63379,1564.71252,1687.62207,-0.03333,0.01794,1.00027,-1.733,0.578,-0.333,6911,74504,110158
5.16,516,13001,1,0,0,0,808.86841,874.63379,1564.55994,1687.54578,-0.03345,0.01856,0.99966,-1.698,0.613,-0.228,6911,74504,110158
5.17,517,13002,1,0,0,0,808.86841,874.63379,1564.63623,1687.77466,-0.03381,0.0177,0.9993,-1.593,0.473,-0.245,6909,74507,110156
5.18,518,13003,1,0,0,0,808.86841,874.63379,1564.71252,1687.46948,-0.03125,0.01831,0.99771,-1.488,0.455,-0.368,6909,74507,110156
5.19,519,13004,1,0,0,0,808.86841,874.63379,1565.09399,1687.69836,-0.03113,0.02063,0.99966,-1.733,0.438,-0.158,6912,74505,110162
5.2,520,13005,1,0,0,0,808.86841,874.63379,1564.78882,1687.69836,-0.03137,0.02063,1.00235,-1.785,0.473,-0.228,6914,74503,110162
5.21,521,13006,1,0,0,0,808.86841,874.63379,1564.48364,1687.46948,-0.02905,0.01941,1.00052,-1.733,0.42,-0.263,6914,74503,110162
5.22,522,13007,1,0,0,0,808.86841,874.63379,1564.71252,1687.46948,-0.02979,0.01929,1.00052,-1.628,0.438,0.0,6914,74503,110162
5.23,523,13008,1,0,0,0,808.86841,874.63379,1564.63623,1687.69836,-0.02881,0.02014,0.99905,-1.698,0.543,-0.035,6914,74507,110170
5.24,524,13009,1,0,0,0,808.86841,874.63379,1564.71252,1687.31689,-0.0304,0.01868,0.99918,-1.908,0.595,-0.088,6914,74507,110170
5.25,525,13010,1,0,0,0,809.09729,874.63379,1564.78882,1687.39319,-0.03247,0.01868,1.0004,-2.1,0.56,-0.228,6914,74514,110177
5.26,526,13011,1,0,0,0,809.09729,874.63379,1564.40735,1687.85095,-0.03247,0.01526,1.00003,-2.048,0.665,-0.21,6914,74514,110177
5.27,527,13012,1,0,0,0,809.09729,874.63379,1564.55994,1687.31689,-0.03333,0.01538,1.00235,-2.275,0.595,-0.175,6917,74513,110177
5.28,528,13013,1,0,0,0,809.09729,874.63379,1564.71252,1687.54578,-0.0332,0.01526,1.00101,-2.048,0.56,-0.42,6917,74513,110177
5.29,529,13014,1,0,0,0,809.09729,874.63379,1564.55994,1687.69836,-0.03455,0.01538,1.00198,-1.698,0.56,-0.28,6918,74514,110181
5.3,530,13015,1,0,0,0,809.09729,874.5575,1564.71252,1687.39319,-0.03223,0.01843,0.99942,-1.628,0.595,-0.228,6919,74515,110185
5.31,531,13016,1,0,0,0,809.09729,874.5575,1564.55994,1687.69836,-0.03186,0.01978,0.99905,-1.558,0.455,-0.245,6919,74515,110185
5.32,532,13017,1,0,0,0,809.09729,874.5575,1564.71252,1687.62207,-0.03186,0.02002,1.00015,-1.943,0.543,-0.245,6919,74515,110185
5.33,533,13018,1,0,0,0,809.09729,874.5575,1564.55994,1688.15613,-0.03174,0.01929,0.99991,-1.995,0.49,-0.21,6921,74511,110188
5.34,534,13019,1,0,0,0,809.09729,874.5575,1564.86511,1687.54578,-0.03052,0.01892,0.99808,-1.855,0.333,-0.088,6921,74511,110188
5.35,535,13020,1,0,0,0,808.9447,874.5575,1564.63623,1687.54578,-0.03052,0.01831,0.99979,-1.785,0.525,-0.193,6919,74511,110189
5.36,536,13021,1,0,0,0,808.9447,874.5575,1564.40735,1687.54578,-0.03235,0.0177,1.00162,-1.943,0.543,-0.263,6919,74511,110189
5.37,537,13022,1,0,0,0,808.9447,874.5575,1564.63623,1687.46948,-0.0304,0.01733,1.0004,-1.768,0.438,-0.193,6924,74512,110193
5.38,538,13023,1,0,0,0,808.9447,874.5575,1564.63623,1687.69836,-0.0304,0.01819,1.00015,-1.593,0.508,-0.123,6924,74512,110193
5.39,539,13024,1,0,0,0,808.9447,874.5575,1564.55994,1687.54578,-0.02893,0.01746,0.99808,-1.768,0.63,-0.228,6928,74513,110201
5.4,540,13025,1,0,0,0,808.9447,874.71008,1564.86511,1687.54578,-0.03101,0.01965,0.9993,-1.925,0.455,-0.14,6928,74513,110201
5.41,541,13026,1,0,0,0,808.9447,874.71008,1564.55994,1687.77466,-0.03088,0.01892,0.99808,-1.943,0.438,-0.14,6930,74516,110202
5.42,542,13027,1,0,0,0,808.9447,874.71008,1564.55994,1687.54578,-0.03186,0.01917,1.00003,-2.1,0.56,-0.368,6930,74516,110202
5.43,543,13028,1,0,0,0,808.9447,874.71008,1564.63623,1687.62207,-0.03125,0.01965,1.00052,-1.995,0.543,-0.105,6930,74517,110210
5.44,544,13029,1,0,0,0,808.9447,874.71008,1564.48364,1687.69836,-0.03247,0.02051,1.00101,-2.135,0.595,-0.018,6930,74517,110210
5.45,545,13030,1,0,0,0,808.86841,874.71008,1564.55994,1687.54578,-0.03125,0.01892,1.00015,-2.24,0.56,-0.21,6929,74515,110210
5.46,546,13031,1,0,0,0,808.86841,874.71008,1564.63623,1687.46948,-0.03198,0.01831,1.00089,-2.328,0.578,-0.333,6929,74515,110210
5.47,547,13032,1,0,0,0,808.86841,874.71008,1564.55994,1687.54578,-0.03211,0.01733,1.00052,-2.345,0.665,-0.263,6931,74518,110215
5.48,548,13033,1,0,0,0,808.86841,874.71008,1564.55994,1687.31689,-0.03125,0.01563,1.00015,-2.135,0.508,-0.018,6931,74518,110215
5.49,549,13034,1,0,0,0,808.86841,874.71008,1564.71252,1687.62207,-0.03125,0.01526,0.99991,-2.083,0.595,-0.123,6932,74520,110223
5.5,550,13035,1,0,0,0,808.86841,874.5575,1564.55994,1687.77466,-0.03137,0.01697,1.00003,-2.153,0.613,-0.333,6932,74520,110223
5.51,551,13036,1,0,0,0,808.86841,874.5575,1564.48364,1687.2406,-0.03259,0.01733,1.00125,-2.1,0.543,-0.403,6936,74521,110225
5.52,552,13037,1,0,0,0,808.86841,874.5575,1564.71252,1687.2406,-0.03137,0.01733,0.99991,-2.03,0.49,-0.21,6936,74521,110225
5.53,553,13038,1,0,0,0,808.86841,874.5575,1564.55994,1687.31689,-0.03235,0.01746,1.00027,-2.31,0.56,-0.385,6937,74522,110228
5.54,554,13039,1,0,0,0,808.86841,874.5575,1564.63623,1687.31689,-0.03272,0.0166,1.00015,-2.293,0.63,-0.42,6937,74522,110228
5.55,555,13040,1,0,0,0,808.86841,874.5575,1564.48364,1687.39319,-0.03381,0.01624,0.99979,-2.03,0.49,-0.333,6939,74525,110234
5.56,556,13041,1,0,0,0,808.86841,874.5575,1564.33105,1687.54578,-0.03088,0.01685,0.99954,-1.785,0.49,-0.245,6939,74525,110234
5.57,557,13042,1,0,0,0,808.86841,874.5575,1564.63623,1687.46948,-0.02905,0.01575,0.99881,-1.575,0.438,-0.333,6939,74523,110241
5.58,558,13043,1,0,0,0,808.86841,874.5575,1564.86511,1687.54578,-0.03027,0.01733,1.00064,-1.68,0.438,-0.245,6939,74523,110241
5.59,559,13044,1,0,0,0,808.86841,874.5575,1564.71252,1687.62207,-0.03162,0.01672,1.00027,-1.768,0.543,-0.14,6944,74527,110244
5.6,560,13045,1,0,0,0,808.86841,874.63379,1564.63623,1687.46948,-0.03211,0.01636,1.00027,-1.803,0.543,-0.595,6944,74527,110244
5.61,561,13046,1,0,0,0,808.86841,874.63379,1564.55994,1687.69836,-0.03369,0.01575,0.99942,-1.873,0.455,-0.595,6945,74528,110251
5.62,562,13047,1,0,0,0,808.86841,874.63379,1564.55994,1687.69836,-0.03296,0.01624,0.99893,-2.153,0.49,-0.665,6945,74528,110251
5.63,563,13048,1,0,0,0,808.86841,874.63379,1564.55994,1687.69836,-0.03333,0.01599,1.00052,-2.048,0.42,-0.543,6946,74528,110254
5.64,564,13049,1,0,0,0,808.86841,874.63379,1564.78882,1687.62207,-0.03113,0.01685,0.99979,-1.995,0.473,-0.385,6946,74528,110254
5.65,565,13050,1,0,0,0,808.79211,874.63379,1564.63623,1687.69836,-0.02808,0.01978,0.99979,-1.89,0.595,-0.298,6949,74528,110253
5.66,566,13051,1,0,0,0,808.79211,874.63379,1564.25476,1687.54578,-0.0315,0.01904,1.00089,-2.135,0.665,-0.438,6949,74528,110253
5.67,567,13052,1,0,0,0,808.79211,874.63379,1564.40735,1687.46948,-0.03528,0.0166,1.0015,-2.398,0.613,-0.35,6952,74535,110265
5.68,568,13053,1,0,0,0,808.79211,874.63379,1564.33105,1687.69836,-0.03626,0.01526,1.00259,-2.345,0.595,-0.21,6952,74535,110265
5.69,569,13054,1,0,0,0,808.79211,874.63379,1564.48364,1687.54578,-0.03455,0.01514,1.00101,-1.96,0.613,0.0,6954,74532,110269
5.7,570,13055,1,0,0,0,808.79211,874.63379,1564.71252,1687.54578,-0.0332,0.01868,1.0004,-1.75,0.49,-0.368,6954,74532,110269
5.71,571,13056,1,0,0,0,808.79211,874.63379,1564.33105,1687.69836,-0.03198,0.01807,0.9993,-1.855,0.508,-0.438,6956,74532,110275
5.72,572,13057,1,0,0,0,808.79211,874.63379,1564.40735,1687.46948,-0.03186,0.01636,0.99844,-1.943,0.368,-0.28,6956,74532,110275
5.73,573,13058,1,0,0,0,808.79211,874.63379,1564.55994,1687.54578,-0.0293,0.01355,0.9993,-1.96,0.438,-0.245,6957,74534,110268
5.74,574,13059,1,0,0,0,808.79211,874.63379,1564.55994,1687.69836,-0.02966,0.01282,1.00101,-1.873,0.438,-0.403,6957,74534,110268
5.75,575,13060,1,0,0,0,808.86841,874.63379,1564.63623,1687.62207,-0.02966,0.01453,1.0004,-1.75,0.438,-0.28,6955,74528,110253
5.76,576,13061,1,0,0,0,808.86841,874.63379,1564.55994,1687.54578,-0.02966,0.01697,1.0015,-1.61,0.473,-0.21,6955,74528,110253
5.77,577,13062,1,0,0,0,808.86841,874.63379,1564.40735,1687.62207,-0.03198,0.01807,0.9982,-1.523,0.595,-0.333,6957,74528,110246
5.78,578,13063,1,0,0,0,808.86841,874.63379,1564.48364,1687.46948,-0.03516,0.01978,1.00101,-1.505,0.63,-0.455,6957,74528,110246
5.79,579,13064,1,0,0,0,808.86841,874.63379,1564.55994,1687.54578,-0.03394,0.0199,0.99991,-1.645,0.613,-0.245,6956,74523,110239
5.8,580,13065,1,0,0,0,808.86841,874.63379,1564.55994,1687.85095,-0.03418,0.01758,1.00003,-1.785,0.49,-0.21,6956,74523,110239
5.81,581,13066,1,0,0,0,808.86841,874.63379,1564.48364,1687.54578,-0.03296,0.01599,1.0004,-1.838,0.525,-0.193,6952,74524,110233
5.82,582,13067,1,0,0,0,808.86841,874.63379,1564.71252,1687.54578,-0.03272,0.01416,1.00137,-1.838,0.56,-0.175,6952,74524,110233
5.83,583,13068,1,0,0,0,808.86841,874.63379,1564.55994,1687.62207,-0.03174,0.01282,1.00064,-1.908,0.543,-0.21,6950,74529,110229
5.84,584,13069,1,0,0,0,808.86841,874.63379,1564.48364,1687.31689,-0.02991,0.01221,0.99783,-1.575,0.49,-0.263,6950,74529,110229
5.85,585,13070,1,0,0,0,808.9447,874.63379,1564.55994,1687.39319,-0.03101,0.0155,0.9993,-1.383,0.49,-0.228,6953,74523,110224
5.86,586,13071,1,0,0,0,808.9447,874.63379,1564.33105,1687.54578,-0.03052,0.01685,0.99844,-1.488,0.7,-0.508,6953,74523,110224
5.87,587,13072,1,0,0,0,808.9447,874.63379,1564.48364,1687.39319,-0.03198,0.01587,1.00015,-1.61,0.508,-0.333,6950,74521,110226
5.88,588,13073,1,0,0,0,808.9447,874.63379,1564.71252,1687.54578,-0.03174,0.01611,1.00052,-1.61,0.385,-0.455,6950,74521,110226
5.89,589,13074,1,0,0,0,808.9447,874.63379,1564.48364,1687.69836,-0.0315,0.01636,1.00064,-1.61,0.403,-0.613,6947,74520,110223
5.9,590,13075,1,0,0,0,808.9447,874.32861,1564.48364,1687.2406,-0.03259,0.01709,0.99954,-1.523,0.578,-0.508,6947,74520,110223
5.91,591,13076,1,0,0,0,808.9447,874.32861,1564.48364,1687.54578,-0.03296,0.01782,1.00003,-1.523,0.56,-0.403,6944,74519,110219
5.92,592,13077,1,0,0,0,808.9447,874.32861,1564.40735,1687.62207,-0.02942,0.01611,0.9993,-1.645,0.473,-0.315,6944,74519,110219
5.93,593,13078,1,0,0,0,808.9447,874.32861,1564.55994,1687.46948,-0.02954,0.01685,0.99991,-1.558,0.455,-0.298,6945,74518,110215
5.94,594,13079,1,0,0,0,808.9447,874.32861,1564.63623,1687.62207,-0.03162,0.01831,1.00418,-1.558,0.49,-0.333,6945,74518,110215
5.95,595,13080,1,0,0,0,808.86841,874.32861,1564.63623,1687.39319,-0.03223,0.01746,1.00003,-1.54,0.543,-0.21,6944,74519,110212
5.96,596,13081,1,0,0,0,808.86841,874.32861,1564.33105,1687.46948,-0.03211,0.01733,0.9993,-1.698,0.473,-0.35,6944,74519,110212
5.97,597,13082,1,0,0,0,808.86841,874.32861,1564.48364,1687.54578,-0.03186,0.01721,1.00015,-1.558,0.385,-0.21,6940,74516,110211
5.98,598,13083,1,0,0,0,808.86841,874.32861,1564.48364,1687.69836,-0.03406,0.01843,1.00089,-1.12,0.438,-0.298,6940,74516,110211
5.99,599,13084,1,0,0,0,808.86841,874.32861,1564.48364,1687.31689,-0.03516,0.01965,1.00125,-1.068,0.543,-0.333,6940,74518,110214
6.0,600,13085,1,0,0,0,808.86841,874.63379,1564.63623,1687.31689,-0.03284,0.01782,0.99954,-0.98,0.455,-0.35,6940,74518,110214
6.01,601,13086,1,0,0,0,808.86841,874.63379,1564.48364,1687.54578,-0.03247,0.01746,0.99869,-1.155,0.403,-0.368,6938,74517,110215
6.02,602,13087,1,0,0,0,808.86841,874.63379,1564.63623,1687.2406,-0.03027,0.01831,0.99918,-1.278,0.368,-0.298,6938,74517,110215
6.03,603,13088,1,0,0,0,808.86841,874.63379,1564.55994,1687.31689,-0.02857,0.01721,1.00003,-1.47,0.455,-0.49,6937,74512,110207
6.04,604,13089,1,0,0,0,808.86841,874.63379,1564.55994,1688.15613,-0.02905,0.01746,1.00003,-1.575,0.56,-0.315,6937,74512,110207
6.05,605,13090,1,0,0,0,808.79211,874.63379,1564.55994,1687.31689,-0.02905,0.01843,1.00003,-1.54,0.665,-0.42,6936,74516,110211
6.06,606,13091,1,0,0,0,808.79211,874.63379,1564.63623,1687.31689,-0.03186,0.01953,0.99966,-1.418,0.648,-0.28,6936,74516,110211
6.07,607,13092,1,0,0,0,808.79211,874.63379,1564.63623,1687.39319,-0.03088,0.02124,0.99991,-1.418,0.508,-0.525,6936,74509,110205
6.08,608,13093,1,0,0,0,808.79211,874.63379,1564.55994,1687.16431,-0.03235,0.01856,0.99893,-1.768,0.525,-0.193,6936,74509,110205
6.09,609,13094,1,0,0,0,808.79211,874.63379,1564.86511,1687.08801,-0.03211,0.01721,0.9982,-2.013,0.56,-0.228,6935,74509,110204
6.1,610,13095,1,0,0,0,808.79211,874.4812,1564.40735,1687.39319,-0.03174,0.01733,1.00027,-1.873,0.56,-0.35,6935,74509,110204
6.11,611,13096,1,0,0,0,808.79211,874.4812,1564.55994,1687.08801,-0.03113,0.01709,0.99991,-1.873,0.648,-0.263,6936,74508,110206
6.12,612,13097,1,0,0,0,808.79211,874.4812,1564.71252,1687.39319,-0.03211,0.01697,1.00076,-1.873,0.56,-0.35,6936,74508,110206
6.13,613,13098,1,0,0,0,808.79211,874.4812,1564.63623,1687.54578,-0.03418,0.01514,1.00369,-1.925,0.473,-0.438,6937,74513,110205
6.14,614,13099,1,0,0,0,808.79211,874.4812,1564.63623,1687.54578,-0.03162,0.01514,1.00162,-1.663,0.403,-0.403,6937,74513,110205
6.15,615,13100,1,0,0,0,809.021,874.4812,1564.63623,1687.39319,-0.02979,0.01697,1.0004,-1.435,0.438,-0.333,6935,74510,110209
6.16,616,13101,1,0,0,0,809.021,874.4812,1564.40735,1687.54578,-0.03223,0.01904,1.00137,-1.26,0.473,-0.228,6935,74510,110209
6.17,617,13102,1,0,0,0,809.021,874.4812,1564.55994,1687.39319,-0.03186,0.01953,1.00027,-1.313,0.42,-0.228,6936,74508,110211
6.18,618,13103,1,0,0,0,809.021,874.4812,1564.55994,1687.46948,-0.03137,0.01904,0.99759,-1.54,0.49,-0.385,6936,74508,110211
6.19,619,13104,1,0,0,0,809.021,874.4812,1564.48364,1687.54578,-0.03223,0.01917,0.99979,-1.575,0.49,-0.263,6936,74509,110211
6.2,620,13105,1,0,0,0,809.021,874.32861,1564.55994,1687.31689,-0.03137,0.01856,0.99869,-1.593,0.49,-0.49,6936,74509,110211
6.21,621,13106,1,0,0,0,809.021,874.32861,1564.55994,1687.54578,-0.03284,0.01721,0.99966,-1.663,0.56,-0.315,6936,74509,110205
6.22,622,13107,1,0,0,0,809.021,874.32861,1564.40735,1687.69836,-0.03088,0.01648,0.99966,-1.505,0.473,-0.035,6936,74509,110205
6.23,623,13108,1,0,0,0,809.021,874.32861,1564.33105,1687.31689,-0.03076,0.0166,1.00052,-1.453,0.403,-0.193,6937,74508,110212
6.24,624,13109,1,0,0,0,809.021,874.32861,1564.40735,1687.31689,-0.03162,0.01746,1.00015,-1.453,0.385,-0.35,6937,74508,110212
6.25,625,13110,1,0,0,0,808.63953,874.32861,1564.40735,1687.54578,-0.03003,0.01819,0.99991,-1.453,0.42,-0.385,6935,74507,110216
6.26,626,13111,1,0,0,0,808.63953,874.32861,1564.10217,1687.31689,-0.03125,0.0199,1.00003,-1.383,0.438,-0.368,6935,74507,110216
6.27,627,13112,1,0,0,0,808.63953,874.32861,1564.33105,1687.39319,-0.03162,0.01917,0.99905,-1.4,0.473,-0.473,6938,74509,110220
6.28,628,13113,1,0,0,0,808.63953,874.32861,1564.25476,1687.46948,-0.03406,0.01892,0.99918,-1.4,0.613,-0.403,6938,74509,110220
6.29,629,13114,1,0,0,0,808.63953,874.32861,1564.40735,1687.08801,-0.03235,0.0177,1.0004,-1.663,0.473,-0.455,6939,74512,110227
6.3,630,13115,1,0,0,0,808.63953,874.71008,1564.48364,1687.31689,-0.03137,0.01856,1.00089,-1.715,0.403,-0.42,6939,74512,110227
6.31,631,13116,1,0,0,0,808.63953,874.71008,1564.40735,1687.39319,-0.02979,0.01819,0.99954,-1.505,0.508,-0.42,6942,74509,110226
6.32,632,13117,1,0,0,0,808.63953,874.71008,1564.48364,1687.31689,-0.0315,0.01917,1.00198,-1.47,0.438,-0.298,6942,74509,110226
6.33,633,13118,1,0,0,0,808.63953,874.71008,1564.48364,1687.31689,-0.03113,0.01978,1.00015,-1.523,0.455,-0.368,6942,74509,110231
6.34,634,13119,1,0,0,0,808.63953,874.71008,1564.40735,1687.39319,-0.03088,0.0188,1.0004,-1.243,0.473,-0.525,6942,74509,110231
6.35,635,13120,1,0,0,0,808.79211,874.71008,1564.40735,1687.39319,-0.0304,0.02063,0.99991,-1.208,0.473,-0.49,6942,74514,110234
6.36,636,13121,1,0,0,0,808.79211,874.71008,1564.63623,1687.62207,-0.02991,0.02063,0.99881,-1.418,0.595,-0.455,6942,74514,110234
6.37,637,13122,1,0,0,0,808.79211,874.71008,1564.55994,1687.54578,-0.03125,0.02039,1.00015,-1.523,0.543,-0.438,6947,74512,110236
6.38,638,13123,1,0,0,0,808.79211,874.71008,1564.48364,1687.31689,-0.03198,0.01868,1.00015,-1.61,0.49,-0.42,6947,74512,110236
6.39,639,13124,1,0,0,0,808.79211,874.71008,1564.78882,1687.46948,-0.03125,0.01892,1.00003,-1.488,0.525,-0.245,6946,74521,110245
6.4,640,13125,1,0,0,0,808.79211,874.32861,1564.40735,1687.31689,-0.03174,0.01917,1.0004,-1.418,0.665,-0.438,6946,74521,110245
6.41,641,13126,1,0,0,0,808.79211,874.32861,1564.40735,1687.31689,-0.03308,0.01868,1.00076,-1.418,0.613,-0.42,6948,74519,110248
6.42,642,13127,1,0,0,0,808.79211,874.32861,1564.55994,1687.39319,-0.03137,0.01978,0.99991,-1.418,0.473,-0.123,6948,74519,110248
6.43,643,13128,1,0,0,0,808.79211,874.32861,1564.40735,1687.54578,-0.03113,0.0199,1.00027,-1.435,0.42,-0.14,6950,74517,110249
6.44,644,13129,1,0,0,0,808.79211,874.32861,1564.33105,1687.46948,-0.03186,0.01917,1.00003,-1.505,0.473,-0.21,6950,74517,110249
6.45,645,13130,1,0,0,0,808.9447,874.32861,1564.48364,1687.16431,-0.03137,0.01709,1.00003,-1.943,0.368,-0.403,6950,74519,110251
6.46,646,13131,1,0,0,0,808.9447,874.32861,1564.17847,1687.54578,-0.03137,0.01672,0.99991,-1.768,0.543,-0.42,6950,74519,110251
6.47,647,13132,1,0,0,0,808.9447,874.32861,1564.40735,1687.31689,-0.03345,0.0188,1.00223,-1.61,0.543,-0.315,6953,74521,110258
6.48,648,13133,1,0,0,0,808.9447,874.32861,1564.55994,1687.31689,-0.03333,0.02075,1.00137,-1.663,0.508,-0.298,6953,74521,110258
6.49,649,13134,1,0,0,0,808.9447,874.32861,1564.48364,1687.62207,-0.0315,0.01929,0.99991,-1.593,0.543,-0.245,6956,74522,110261
6.5,650,13135,1,0,0,0,808.9447,874.32861,1564.63623,1687.2406,-0.03198,0.02112,0.99966,-1.593,0.56,-0.473,6956,74522,110261
6.51,651,13136,1,0,0,0,808.9447,874.32861,1564.55994,1687.62207,-0.03113,0.02124,0.99857,-1.435,0.525,-0.35,6958,74522,110259
6.52,652,13137,1,0,0,0,808.9447,874.32861,1564.33105,1687.62207,-0.03369,0.02136,1.00064,-1.593,0.56,-0.298,6958,74522,110259
6.53,653,13138,1,0,0,0,808.9447,874.32861,1564.40735,1687.31689,-0.03186,0.01917,0.99832,-1.838,0.56,-0.385,6958,74524,110265
6.54,654,13139,1,0,0,0,808.9447,874.32861,1564.55994,1687.31689,-0.03162,0.01831,1.0004,-1.978,0.56,-0.49,6958,74524,110265
6.55,655,13140,1,0,0,0,808.86841,874.32861,1564.55994,1687.54578,-0.03198,0.0177,1.00198,-1.873,0.56,-0.455,6957,74526,110267
6.56,656,13141,1,0,0,0,808.86841,874.32861,1564.17847,1687.31689,-0.03113,0.01831,1.00125,-1.68,0.613,-0.35,6957,74526,110267
6.57,657,13142,1,0,0,0,808.86841,874.32861,1564.48364,1687.31689,-0.03088,0.01868,1.00076,-1.715,0.595,-0.315,6961,74523,110266
6.58,658,13143,1,0,0,0,808.86841,874.32861,1564.40735,1687.54578,-0.03174,0.01978,1.00052,-1.873,0.455,-0.403,6961,74523,110266
6.59,659,13144,1,0,0,0,808.86841,874.32861,1564.40735,1687.2406,-0.03223,0.01929,0.99991,-1.803,0.525,-0.315,6963,74521,110269
6.6,660,13145,1,0,0,0,808.86841,874.5575,1564.40735,1687.46948,-0.03162,0.01978,0.99979,-1.61,0.508,-0.385,6963,74521,110269
6.61,661,13146,1,0,0,0,808.86841,874.5575,1564.33105,1687.39319,-0.03113,0.01868,0.99954,-1.4,0.455,-0.263,6965,74523,110271
6.62,662,13147,1,0,0,0,808.86841,874.5575,1564.40735,1687.16431,-0.03259,0.01904,0.99942,-1.278,0.508,-0.263,6965,74523,110271
6.63,663,13148,1,0,0,0,808.86841,874.5575,1564.63623,1687.2406,-0.03308,0.0199,0.99954,-1.418,0.525,-0.28,6962,74524,110273
6.64,664,13149,1,0,0,0,808.86841,874.5575,1564.48364,1687.31689,-0.0315,0.02002,0.9993,-1.558,0.455,-0.263,6962,74524,110273
6.65,665,13150,1,0,0,0,808.79211,874.5575,1564.33105,1687.31689,-0.02966,0.01929,0.99881,-1.645,0.508,-0.35,6966,74523,110271
6.66,666,13151,1,0,0,0,808.79211,874.5575,1564.25476,1687.2406,-0.03223,0.02026,1.00125,-1.785,0.508,-0.42,6966,74523,110271
6.67,667,13152,1,0,0,0,808.79211,874.5575,1564.48364,1687.39319,-0.0304,0.02185,1.00003,-1.733,0.455,-0.315,6967,74522,110276
6.68,668,13153,1,0,0,0,808.79211,874.5575,1564.48364,1687.2406,-0.02869,0.02222,0.99905,-1.785,0.368,-0.263,6967,74522,110276
6.69,669,13154,1,0,0,0,808.79211,874.5575,1564.63623,1687.31689,-0.02783,0.02271,0.99832,-1.82,0.438,-0.158,6969,74524,110277
6.7,670,13155,1,0,0,0,808.79211,874.40491,1564.55994,1687.54578,-0.03247,0.01965,1.00027,-2.048,0.578,-0.263,6969,74524,110277
6.71,671,13156,1,0,0,0,808.79211,874.40491,1564.25476,1687.2406,-0.03381,0.01733,0.99979,-2.205,0.578,-0.473,6971,74522,110278
6.72,672,13157,1,0,0,0,808.79211,874.40491,1564.40735,1687.31689,-0.03479,0.01794,0.99979,-1.925,0.49,-0.333,6971,74522,110278
6.73,673,13158,1,0,0,0,808.79211,874.40491,1564.48364,1687.46948,-0.03369,0.01831,1.0004,-1.75,0.525,-0.228,6971,74524,110279
6.74,674,13159,1,0,0,0,808.79211,874.40491,1564.25476,1687.31689,-0.03516,0.02026,1.00064,-1.663,0.543,-0.21,6971,74524,110279
6.75,675,13160,1,0,0,0,808.71582,874.40491,1564.48364,1687.16431,-0.0332,0.02136,0.99942,-1.558,0.543,-0.35,6974,74520,110273
6.76,676,13161,1,0,0,0,808.71582,874.40491,1564.10217,1687.46948,-0.03003,0.01831,0.99991,-1.768,0.438,-0.35,6974,74520,110273
6.77,677,13162,1,0,0,0,808.71582,874.40491,1564.33105,1687.2406,-0.02954,0.01624,1.00113,-1.89,0.333,-0.158,6975,74518,110260
6.78,678,13163,1,0,0,0,808.71582,874.40491,1564.17847,1687.39319,-0.02881,0.0155,1.0032,-1.855,0.403,-0.385,6975,74518,110260
6.79,679,13164,1,0,0,0,808.71582,874.40491,1564.25476,1687.39319,-0.02771,0.01733,1.00296,-1.628,0.35,-0.263,6973,74511,110240
6.8,680,13165,1,0,0,0,808.71582,874.32861,1564.48364,1687.2406,-0.0293,0.02002,1.00015,-1.575,0.543,-0.508,6973,74511,110240
6.81,681,13166,1,0,0,0,808.71582,874.32861,1564.40735,1687.31689,-0.03162,0.02246,1.00015,-1.733,0.595,-0.385,6972,74508,110236
6.82,682,13167,1,0,0,0,808.71582,874.32861,1564.25476,1687.39319,-0.03101,0.02161,0.9971,-1.768,0.508,-0.368,6972,74508,110236
6.83,683,13168,1,0,0,0,808.71582,874.32861,1564.33105,1687.16431,-0.03333,0.02124,0.99661,-1.82,0.578,-0.228,6969,74507,110227
6.84,684,13169,1,0,0,0,808.71582,874.32861,1564.40735,1687.31689,-0.03284,0.02014,0.99869,-1.995,0.63,-0.263,6969,74507,110227
6.85,685,13170,1,0,0,0,808.79211,874.32861,1564.48364,1687.54578,-0.03394,0.01709,1.00101,-1.995,0.42,-0.053,6966,74509,110223
6.86,686,13171,1,0,0,0,808.79211,874.32861,1564.17847,1687.16431,-0.03198,0.01563,0.99942,-1.89,0.49,-0.333,6966,74509,110223
6.87,687,13172,1,0,0,0,808.79211,874.32861,1564.55994,1687.31689,-0.03052,0.01587,0.99942,-1.943,0.473,-0.613,6962,74502,110212
6.88,688,13173,1,0,0,0,808.79211,874.32861,1564.48364,1687.39319,-0.03101,0.01733,1.0004,-1.925,0.508,-0.665,6962,74502,110212
6.89,689,13174,1,0,0,0,808.79211,874.32861,1564.55994,1687.2406,-0.03027,0.01953,1.00113,-1.61,0.455,-0.525,6959,74494,110208
6.9,690,13175,1,0,0,0,808.79211,874.5575,1564.55994,1688.15613,-0.0304,0.02161,1.00027,-1.575,0.578,-0.595,6959,74494,110208
6.91,691,13176,1,0,0,0,808.79211,874.5575,1564.48364,1687.39319,-0.03003,0.02124,1.00064,-1.575,0.543,-0.56,6955,74496,110201
6.92,692,13177,1,0,0,0,808.79211,874.5575,1564.48364,1687.2406,-0.03088,0.021,1.00076,-1.715,0.385,-0.455,6955,74496,110201
6.93,693,13178,1,0,0,0,808.79211,874.5575,1564.71252,1687.31689,-0.03125,0.01807,1.00015,-1.768,0.578,-0.56,6955,74489,110186
6.94,694,13179,1,0,0,0,808.79211,874.5575,1564.40735,1687.39319,-0.03113,0.01758,0.99893,-1.698,0.49,-0.455,6955,74489,110186
6.95,695,13180,1,0,0,0,808.79211,874.5575,1564.48364,1687.08801,-0.03052,0.01758,0.99661,-1.698,0.508,-0.298,6952,74490,110181
6.96,696,13181,1,0,0,0,808.79211,874.5575,1564.33105,1687.2406,-0.03137,0.01917,0.99844,-1.733,0.56,-0.473,6952,74490,110181
6.97,697,13182,1,0,0,0,808.79211,874.5575,1564.48364,1687.31689,-0.03064,0.02014,0.99942,-1.628,0.665,-0.63,6951,74487,110179
6.98,698,13183,1,0,0,0,808.79211,874.5575,1564.48364,1687.2406,-0.03101,0.0188,0.99942,-1.768,0.508,-0.753,6951,74487,110179
6.99,699,13184,1,0,0,0,808.79211,874.5575,1564.71252,1687.31689,-0.03137,0.01868,1.00015,-1.96,0.49,-0.543,6946,74485,110173
7.0,700,13185,1,0,0,0,808.79211,874.4812,1564.55994,1687.39319,-0.03296,0.01929,1.00223,-1.978,0.49,-0.525,6946,74485,110173
7.01,701,13186,1,0,0,0,808.79211,874.4812,1564.48364,1687.31689,-0.03198,0.01953,1.00113,-1.855,0.525,-0.49,6942,74482,110171
7.02,702,13187,1,0,0,0,808.79211,874.4812,1564.40735,1687.31689,-0.03088,0.02149,0.99808,-1.313,0.683,-0.49,6942,74482,110171
7.03,703,13188,1,0,0,0,808.79211,874.4812,1564.48364,1687.39319,-0.03198,0.02307,1.00076,-1.295,0.455,-0.49,6945,74481,110170
7.04,704,13189,1,0,0,0,808.79211,874.4812,1564.40735,1687.31689,-0.03076,0.02197,1.00015,-1.593,0.455,-0.245,6945,74481,110170
7.05,705,13190,1,0,0,0,809.021,874.4812,1564.63623,1687.2406,-0.02991,0.02087,1.00027,-1.785,0.42,-0.298,6942,74479,110162
7.06,706,13191,1,0,0,0,809.021,874.4812,1564.25476,1687.46948,-0.02808,0.02014,0.9982,-1.61,0.455,-0.333,6942,74479,110162
7.07,707,13192,1,0,0,0,809.021,874.4812,1564.55994,1687.39319,-0.02869,0.02014,0.99881,-1.908,0.578,-0.49,6941,74476,110161
7.08,708,13193,1,0,0,0,809.021,874.4812,1564.48364,1687.85095,-0.03088,0.02063,1.00052,-2.118,0.595,-0.473,6941,74476,110161
7.09,709,13194,1,0,0,0,809.021,874.4812,1564.48364,1687.39319,-0.03137,0.0177,1.00174,-2.118,0.508,-0.578,6939,74476,110160
7.1,710,13195,1,0,0,0,809.021,874.32861,1564.48364,1687.16431,-0.03174,0.01819,1.00027,-1.943,0.595,-0.508,6939,74476,110160
7.11,711,13196,1,0,0,0,809.021,874.32861,1564.40735,1687.31689,-0.0304,0.01868,0.99991,-1.908,0.613,-0.473,6936,74475,110159
7.12,712,13197,1,0,0,0,809.021,874.32861,1564.48364,1687.46948,-0.03369,0.01941,0.99796,-1.768,0.648,-0.385,6936,74475,110159
7.13,713,13198,1,0,0,0,809.021,874.32861,1564.48364,1687.39319,-0.03345,0.02136,1.00003,-1.75,0.578,-0.455,6936,74471,110156
7.14,714,13199,1,0,0,0,809.021,874.32861,1564.48364,1687.46948,-0.03272,0.02185,0.99954,-1.785,0.543,-0.298,6936,74471,110156
7.15,715,13200,1,0,0,0,808.79211,874.32861,1564.40735,1687.62207,-0.03247,0.02149,0.99966,-1.82,0.63,-0.21,6935,74469,110150
7.16,716,13201,1,0,0,0,808.79211,874.32861,1564.25476,1687.01172,-0.03504,0.02063,1.00015,-1.995,0.508,-0.14,6935,74469,110150
7.17,717,13202,1,0,0,0,808.79211,874.32861,1564.48364,1687.31689,-0.03198,0.01978,0.99954,-1.96,0.508,-0.21,6933,74469,110150
7.18,718,13203,1,0,0,0,808.79211,874.32861,1564.55994,1687.2406,-0.0304,0.01733,1.00015,-1.838,0.508,-0.053,6933,74469,110150
7.19,719,13204,1,0,0,0,808.79211,874.32861,1564.48364,1687.16431,-0.03076,0.01611,1.00101,-1.925,0.403,-0.403,6933,74469,110150
7.2,720,13205,1,0,0,0,808.79211,875.01526,1564.71252,1687.31689,-0.03162,0.01648,1.00125,-1.698,0.403,-0.28,6933,74472,110155
7.21,721,13206,1,0,0,0,808.79211,875.01526,1564.25476,1687.16431,-0.02966,0.01831,0.99905,-1.26,0.49,-0.07,6933,74472,110155
7.22,722,13207,1,0,0,0,808.79211,875.01526,1564.48364,1687.31689,-0.02905,0.02112,0.99783,-1.173,0.508,-0.228,6933,74469,110156
7.23,723,13208,1,0,0,0,808.79211,875.01526,1564.55994,1687.2406,-0.03247,0.02503,1.00015,-1.575,0.543,-0.14,6933,74469,110156
7.24,724,13209,1,0,0,0,808.79211,875.01526,1564.55994,1687.39319,-0.03125,0.02026,0.99918,-1.803,0.525,-0.158,6931,74470,110151
7.25,725,13210,1,0,0,0,808.79211,875.01526,1564.55994,1687.16431,-0.03211,0.01953,0.99979,-2.083,0.578,-0.228,6931,74471,110158
7.26,726,13211,1,0,0,0,808.79211,875.01526,1564.55994,1687.39319,-0.03076,0.0177,0.99881,-1.978,0.49,-0.053,6931,74471,110158
7.27,727,13212,1,0,0,0,808.79211,875.01526,1564.55994,1687.39319,-0.03064,0.01831,1.00052,-1.768,0.595,-0.088,6931,74471,110158
7.28,728,13213,1,0,0,0,808.79211,875.01526,1564.40735,1687.16431,-0.03125,0.01758,0.9993,-1.838,0.56,-0.175,6935,74465,110159
7.29,729,13214,1,0,0,0,808.79211,875.01526,1564.55994,1687.39319,-0.03137,0.01843,0.9993,-1.628,0.63,-0.14,6935,74465,110159
7.3,730,13215,1,0,0,0,808.79211,874.32861,1564.63623,1687.46948,-0.03174,0.01978,1.00015,-1.628,0.595,-0.385,6933,74470,110158
7.31,731,13216,1,0,0,0,808.79211,874.32861,1564.17847,1687.2406,-0.03308,0.02039,1.00052,-1.488,0.543,-0.07,6933,74470,110158
7.32,732,13217,1,0,0,0,808.79211,874.32861,1564.40735,1687.16431,-0.03211,0.02087,0.99942,-1.505,0.473,-0.088,6933,74469,110160
7.33,733,13218,1,0,0,0,808.79211,874.32861,1564.33105,1687.39319,-0.03284,0.01965,1.00076,-1.628,0.368,-0.315,6933,74469,110160
7.34,734,13219,1,0,0,0,808.79211,874.32861,1564.33105,1687.16431,-0.03015,0.01807,0.99905,-1.47,0.35,-0.21,6932,74466,110160
7.35,735,13220,1,0,0,0,808.86841,874.32861,1564.63623,1687.01172,-0.03125,0.01843,0.99966,-1.523,0.35,-0.228,6934,74470,110168
7.36,736,13221,1,0,0,0,808.86841,874.32861,1564.10217,1687.39319,-0.0315,0.01904,0.99881,-1.54,0.42,-0.403,6934,74470,110168
7.37,737,13222,1,0,0,0,808.86841,874.32861,1564.40735,1687.2406,-0.03125,0.0199,1.00027,-1.558,0.403,-0.35,6934,74470,110168
7.38,738,13223,1,0,0,0,808.86841,874.32861,1564.55994,1687.31689,-0.03113,0.02087,1.00015,-1.645,0.385,-0.455,6933,74472,110170
7.39,739,13224,1,0,0,0,808.86841,874.32861,1564.40735,1687.31689,-0.03211,0.021,1.0015,-1.663,0.473,-0.455,6933,74472,110170
7.4,740,13225,1,0,0,0,808.86841,874.32861,1564.48364,1687.16431,-0.03162,0.02026,1.0015,-1.75,0.438,-0.28,6935,74475,110175
7.41,741,13226,1,0,0,0,808.86841,874.32861,1564.33105,1687.31689,-0.03088,0.0188,1.00052,-1.89,0.49,-0.438,6935,74475,110175
7.42,742,13227,1,0,0,0,808.86841,874.32861,1564.48364,1687.2406,-0.0304,0.0188,0.99991,-1.733,0.438,-0.298,6939,74473,110178
7.43,743,13228,1,0,0,0,808.86841,874.32861,1564.48364,1687.16431,-0.03088,0.01782,1.00003,-1.593,0.315,-0.438,6939,74473,110178
7.44,744,13229,1,0,0,0,808.86841,874.32861,1564.78882,1687.31689,-0.03174,0.01953,1.00076,-1.453,0.438,-0.525,6938,74473,110179
7.45,745,13230,1,0,0,0,808.79211,874.32861,1564.48364,1687.46948,-0.03027,0.02112,0.99966,-1.488,0.455,-0.56,6938,74470,110184
7.46,746,13231,1,0,0,0,808.79211,874.32861,1564.25476,1687.16431,-0.03125,0.01953,0.99979,-1.523,0.508,-0.508,6938,74470,110184
7.47,747,13232,1,0,0,0,808.79211,874.32861,1564.63623,1687.16431,-0.03223,0.01831,0.99857,-1.47,0.42,-0.35,6938,74470,110184
7.48,748,13233,1,0,0,0,808.79211,874.32861,1564.40735,1687.31689,-0.03223,0.02124,1.00101,-1.435,0.543,-0.403,6940,74475,110187
7.49,749,13234,1,0,0,0,808.79211,874.32861,1564.48364,1687.08801,-0.03211,0.02075,0.99869,-1.435,0.525,-0.455,6940,74475,110187
7.5,750,13235,1,0,0,0,808.79211,874.4812,1564.48364,1686.93542,-0.03284,0.01904,1.0015,-1.75,0.613,-0.508,6942,74477,110187
7.51,751,13236,1,0,0,0,808.79211,874.4812,1564.25476,1687.08801,-0.03198,0.01856,1.00076,-1.54,0.508,-0.438,6942,74477,110187
7.52,752,13237,1,0,0,0,808.79211,874.4812,1564.33105,1687.08801,-0.03223,0.01965,1.00076,-1.54,0.42,-0.368,6944,74478,110192
7.53,753,13238,1,0,0,0,808.79211,874.4812,1564.48364,1686.93542,-0.03003,0.0199,0.9982,-1.348,0.508,-0.385,6944,74478,110192
7.54,754,13239,1,0,0,0,808.79211,874.4812,1564.48364,1687.08801,-0.03259,0.02051,1.00015,-1.348,0.455,-0.473,6942,74477,110194
7.55,755,13240,1,0,0,0,808.71582,874.4812,1564.48364,1686.78284,-0.03113,0.02136,1.00125,-1.453,0.438,-0.28,6946,74478,110201
7.56,756,13241,1,0,0,0,808.71582,874.4812,1564.40735,1687.16431,-0.0304,0.02124,0.99905,-1.488,0.525,-0.455,6946,74478,110201
7.57,757,13242,1,0,0,0,808.71582,874.4812,1564.40735,1687.16431,-0.03015,0.02063,0.99966,-1.61,0.455,-0.35,6946,74478,110201
7.58,758,13243,1,0,0,0,808.71582,874.4812,1564.40735,1687.01172,-0.03223,0.02124,1.00174,-1.645,0.49,-0.28,6946,74478,110203
7.59,759,13244,1,0,0,0,808.71582,874.4812,1564.55994,1687.2406,-0.0315,0.01941,1.00052,-1.558,0.455,-0.508,6946,74478,110203
7.6,760,13245,1,0,0,0,808.71582,874.32861,1564.55994,1687.08801,-0.0304,0.01941,0.99869,-1.645,0.403,-0.333,6950,74478,110202
7.61,761,13246,1,0,0,0,808.71582,874.32861,1564.17847,1687.08801,-0.03076,0.02136,0.99918,-1.47,0.455,-0.298,6950,74478,110202
7.62,762,13247,1,0,0,0,808.71582,874.32861,1564.48364,1687.16431,-0.03064,0.02295,0.99991,-1.505,0.49,-0.368,6951,74477,110205
7.63,763,13248,1,0,0,0,808.71582,874.32861,1564.40735,1687.2406,-0.03198,0.0238,1.00125,-1.593,0.578,-0.543,6951,74477,110205
7.64,764,13249,1,0,0,0,808.71582,874.32861,1564.40735,1686.93542,-0.0315,0.02136,0.9993,-1.698,0.578,-0.28,6953,74477,110208
7.65,765,13250,1,0,0,0,808.79211,874.32861,1564.48364,1686.93542,-0.03015,0.02234,0.99893,-1.61,0.543,-0.21,6953,74477,110208
7.66,766,13251,1,0,0,0,808.79211,874.32861,1564.25476,1687.08801,-0.03052,0.02295,0.9993,-1.505,0.455,-0.228,6954,74477,110202
7.67,767,13252,1,0,0,0,808.79211,874.32861,1564.40735,1687.01172,-0.03003,0.02173,0.99991,-1.838,0.49,-0.245,6954,74477,110202
7.68,768,13253,1,0,0,0,808.79211,874.32861,1564.40735,1686.93542,-0.03125,0.01929,1.00076,-1.838,0.508,-0.053,6954,74477,110206
7.69,769,13254,1,0,0,0,808.79211,874.32861,1564.40735,1687.08801,-0.0293,0.01758,0.99942,-1.645,0.49,-0.053,6954,74477,110206
7.7,770,13255,1,0,0,0,808.79211,874.25232,1564.40735,1687.08801,-0.03113,0.01965,0.99893,-1.453,0.49,-0.228,6956,74477,110213
7.71,771,13256,1,0,0,0,808.79211,874.25232,1564.33105,1687.01172,-0.03296,0.02222,1.00027,-1.75,0.56,-0.333,6956,74477,110213
7.72,772,13257,1,0,0,0,808.79211,874.25232,1564.40735,1687.16431,-0.03101,0.02039,0.99808,-1.733,0.508,-0.385,6957,74478,110212
7.73,773,13258,1,0,0,0,808.79211,874.25232,1564.25476,1686.93542,-0.03052,0.02112,0.99893,-1.803,0.455,-0.228,6957,74478,110212
7.74,774,13259,1,0,0,0,808.79211,874.25232,1564.55994,1687.16431,-0.0315,0.02319,1.00235,-1.838,0.56,-0.263,6958,74476,110218
7.75,775,13260,1,0,0,0,808.71582,874.25232,1564.25476,1687.31689,-0.0315,0.02173,1.00027,-2.013,0.473,-0.403,6958,74476,110218
7.76,776,13261,1,0,0,0,808.71582,874.25232,1564.25476,1686.93542,-0.03235,0.01978,0.99905,-2.258,0.578,-0.403,6960,74475,110223
7.77,777,13262,1,0,0,0,808.71582,874.25232,1564.48364,1687.01172,-0.03308,0.01709,0.99881,-2.345,0.56,-0.263,6960,74475,110223
7.78,778,13263,1,0,0,0,808.71582,874.25232,1564.40735,1687.2406,-0.03333,0.01782,1.0004,-2.083,0.595,-0.088,6961,74477,110224
7.79,779,13264,1,0,0,0,808.71582,874.25232,1564.40735,1687.16431,-0.03235,0.01953,1.00027,-1.803,0.543,-0.175,6961,74477,110224
7.8,780,13265,1,0,0,0,808.71582,874.63379,1564.48364,1687.16431,-0.03296,0.02197,1.00076,-1.488,0.508,-0.368,6963,74478,110222
7.81,781,13266,1,0,0,0,808.71582,874.63379,1564.17847,1687.31689,-0.03125,0.02051,1.00015,-1.663,0.473,-0.088,6963,74478,110222
7.82,782,13267,1,0,0,0,808.71582,874.63379,1564.48364,1687.16431,-0.03064,0.0188,1.00186,-1.61,0.438,-0.175,6963,74473,110211
7.83,783,13268,1,0,0,0,808.71582,874.63379,1564.48364,1687.2406,-0.0282,0.01746,1.00162,-1.75,0.368,-0.438,6963,74473,110211
7.84,784,13269,1,0,0,0,808.71582,874.63379,1564.40735,1687.2406,-0.02918,0.01746,1.00174,-1.663,0.49,-0.403,6963,74471,110199
7.85,785,13270,1,0,0,0,808.79211,874.63379,1564.55994,1687.01172,-0.02966,0.02051,0.99954,-1.33,0.508,-0.368,6963,74471,110199
7.86,786,13271,1,0,0,0,808.79211,874.63379,1564.94141,1687.62207,-0.02942,0.02271,0.9982,-1.47,0.56,-0.333,6961,74470,110185
7.87,787,13272,1,0,0,0,808.79211,874.63379,1564.33105,1687.31689,-0.0315,0.02454,0.99832,-1.575,0.595,-0.35,6961,74470,110185
7.88,788,13273,1,0,0,0,808.79211,874.63379,1564.40735,1687.2406,-0.0343,0.02466,1.00064,-1.89,0.595,-0.228,6958,74468,110177
7.89,789,13274,1,0,0,0,808.79211,874.63379,1564.17847,1687.16431,-0.03369,0.02344,1.00027,-2.065,0.49,-0.315,6958,74468,110177
7.9,790,13275,1,0,0,0,808.79211,874.32861,1564.55994,1688.00354,-0.03296,0.01843,1.00015,-2.03,0.543,-0.175,6956,74464,110174
7.91,791,13276,1,0,0,0,808.79211,874.32861,1564.02588,1687.08801,-0.03174,0.01624,0.99991,-1.943,0.56,-0.21,6956,74464,110174
7.92,792,13277,1,0,0,0,808.79211,874.32861,1564.33105,1687.16431,-0.03235,0.01697,1.00003,-1.89,0.543,-0.35,6953,74468,110168
7.93,793,13278,1,0,0,0,808.79211,874.32861,1564.25476,1687.31689,-0.0315,0.01746,0.99942,-1.82,0.473,-0.175,6953,74468,110168
7.94,794,13279,1,0,0,0,808.79211,874.32861,1564.25476,1687.16431,-0.03076,0.01978,0.99905,-1.558,0.49,-0.298,6951,74457,110161
7.95,795,13280,1,0,0,0,808.79211,874.32861,1564.40735,1687.16431,-0.03125,0.02295,1.00076,-1.663,0.525,-0.595,6951,74457,110161
7.96,796,13281,1,0,0,0,808.79211,874.32861,1564.17847,1687.2406,-0.03137,0.02185,1.0004,-1.82,0.508,-0.368,6950,74454,110158
7.97,797,13282,1,0,0,0,808.79211,874.32861,1564.48364,1687.08801,-0.03027,0.01978,0.99954,-1.82,0.525,-0.403,6950,74454,110158
7.98,798,13283,1,0,0,0,808.79211,874.32861,1564.55994,1687.39319,-0.03076,0.01965,1.00052,-1.855,0.543,-0.403,6947,74452,110145
7.99,799,13284,1,0,0,0,808.79211,874.32861,1564.33105,1687.46948,-0.03101,0.01929,1.00027,-1.838,0.525,-0.35,6947,74452,110145
8.0,800,13285,1,0,0,0,808.79211,874.32861,1564.48364,1687.2406,-0.0315,0.01892,0.99857,-1.54,0.63,-0.49,6942,74449,110141
8.01,801,13286,1,0,0,0,808.79211,874.32861,1564.33105,1687.16431,-0.03284,0.01953,0.99942,-1.628,0.508,-0.298,6942,74449,110141
8.02,802,13287,1,0,0,0,808.79211,874.32861,1564.55994,1687.31689,-0.03113,0.02002,0.99979,-1.855,0.473,-0.473,6942,74447,110134
8.03,803,13288,1,0,0,0,808.79211,874.32861,1564.48364,1687.16431,-0.03223,0.02075,1.00198,-1.82,0.508,-0.525,6942,74447,110134
8.04,804,13289,1,0,0,0,808.79211,874.32861,1564.63623,1687.16431,-0.03052,0.02051,1.0004,-1.628,0.473,-0.438,6937,74444,110125
8.05,805,13290,1,0,0,0,808.86841,874.32861,1564.48364,1687.46948,-0.03076,0.01929,1.00027,-1.768,0.455,-0.263,6937,74444,110125
8.06,806,13291,1,0,0,0,808.86841,874.32861,1564.40735,1687.01172,-0.03186,0.02149,1.0004,-1.803,0.385,-0.21,6935,74441,110118
8.07,807,13292,1,0,0,0,808.86841,874.32861,1564.48364,1687.2406,-0.0315,0.02185,0.99966,-1.488,0.455,-0.263,6935,74441,110118
8.08,808,13293,1,0,0,0,808.86841,874.32861,1564.40735,1687.16431,-0.03345,0.02417,0.99991,-1.4,0.613,-0.403,6932,74440,110113
8.09,809,13294,1,0,0,0,808.86841,874.32861,1564.40735,1687.08801,-0.03296,0.02405,0.99905,-1.523,0.543,-0.333,6932,74440,110113
8.1,810,13295,1,0,0,0,808.86841,874.5575,1564.55994,1686.93542,-0.03162,0.01929,0.99942,-1.908,0.525,-0.263,6931,74437,110116
8.11,811,13296,1,0,0,0,808.86841,874.5575,1564.17847,1687.2406,-0.03162,0.01929,0.99942,-2.03,0.543,-0.263,6931,74437,110116
8.12,812,13297,1,0,0,0,808.86841,874.5575,1564.40735,1687.16431,-0.02893,0.01721,1.00211,-1.995,0.403,-0.368,6931,74436,110111
8.13,813,13298,1,0,0,0,808.86841,874.5575,1564.48364,1687.16431,-0.02893,0.01672,1.00003,-1.82,0.525,-0.263,6931,74436,110111
8.14,814,13299,1,0,0,0,808.86841,874.5575,1564.48364,1687.39319,-0.0293,0.01917,0.99942,-1.663,0.578,-0.333,6928,74433,110106
8.15,815,13300,1,0,0,0,808.79211,874.5575,1564.55994,1686.78284,-0.03137,0.02087,0.99942,-1.523,0.665,-0.385,6928,74433,110106
8.16,816,13301,1,0,0,0,808.79211,874.5575,1564.40735,1687.08801,-0.03211,0.02319,1.0004,-1.89,0.735,-0.508,6929,74430,110105
8.17,817,13302,1,0,0,0,808.79211,874.5575,1564.33105,1687.2406,-0.03381,0.02124,1.00027,-1.733,0.595,-0.333,6929,74430,110105
8.18,818,13303,1,0,0,0,808.79211,874.5575,1564.33105,1686.93542,-0.03247,0.02185,0.99954,-1.505,0.613,-0.158,6927,74432,110105
8.19,819,13304,1,0,0,0,808.79211,874.5575,1564.40735,1687.01172,-0.0343,0.0221,1.00089,-1.523,0.56,-0.123,6927,74432,110105
8.2,820,13305,1,0,0,0,808.79211,874.32861,1564.55994,1687.39319,-0.03247,0.02063,0.99905,-1.61,0.455,-0.298,6925,74429,110105
8.21,821,13306,1,0,0,0,808.79211,874.32861,1564.10217,1687.2406,-0.03198,0.02014,0.99954,-1.75,0.385,-0.28,6925,74429,110105
8.22,822,13307,1,0,0,0,808.79211,874.32861,1564.40735,1687.2406,-0.0315,0.01782,1.00101,-1.68,0.508,-0.438,6923,74432,110103
8.23,823,13308,1,0,0,0,808.79211,874.32861,1564.40735,1687.2406,-0.03198,0.01819,1.00259,-1.575,0.595,-0.403,6923,74432,110103
8.24,824,13309,1,0,0,0,808.79211,874.32861,1564.33105,1687.08801,-0.03186,0.01746,1.0004,-1.575,0.543,-0.385,6922,74430,110108
8.25,825,13310,1,0,0,0,808.71582,874.32861,1564.48364,1687.2406,-0.03101,0.0188,1.0004,-1.488,0.42,-0.508,6922,74430,110108
8.26,826,13311,1,0,0,0,808.71582,874.32861,1564.33105,1687.2406,-0.03015,0.02039,1.00015,-1.453,0.473,-0.42,6922,74430,110111
8.27,827,13312,1,0,0,0,808.71582,874.32861,1564.40735,1687.08801,-0.03259,0.02112,1.00003,-1.54,0.473,-0.543,6922,74430,110111
8.28,828,13313,1,0,0,0,808.71582,874.32861,1564.48364,1687.08801,-0.03308,0.02271,0.99881,-1.523,0.508,-0.385,6922,74429,110112
8.29,829,13314,1,0,0,0,808.71582,874.32861,1564.48364,1687.16431,-0.03198,0.02075,0.99857,-1.488,0.525,-0.455,6922,74429,110112
8.3,830,13315,1,0,0,0,808.71582,874.40491,1564.33105,1687.16431,-0.03235,0.02026,0.99808,-1.733,0.49,-0.35,6923,74430,110113
8.31,831,13316,1,0,0,0,808.71582,874.40491,1564.40735,1687.01172,-0.03247,0.02063,0.99954,-1.733,0.525,-0.368,6923,74430,110113
8.32,832,13317,1,0,0,0,808.71582,874.40491,1564.40735,1687.16431,-0.03125,0.02149,1.00052,-1.61,0.508,-0.385,6922,74431,110118
8.33,833,13318,1,0,0,0,808.71582,874.40491,1564.48364,1686.93542,-0.02979,0.02075,1.00027,-1.628,0.49,-0.473,6922,74431,110118
8.34,834,13319,1,0,0,0,808.71582,874.40491,1564.71252,1687.2406,-0.03015,0.02087,1.00015,-1.645,0.473,-0.49,6924,74431,110118
8.35,835,13320,1,0,0,0,808.79211,874.40491,1564.48364,1687.31689,-0.03052,0.02149,1.00198,-1.803,0.42,-0.228,6924,74431,110118
8.36,836,13321,1,0,0,0,808.79211,874.40491,1564.25476,1687.08801,-0.0304,0.02063,1.00064,-1.733,0.508,-0.333,6923,74432,110122
8.37,837,13322,1,0,0,0,808.79211,874.40491,1564.63623,1687.01172,-0.03186,0.02124,1.0015,-1.663,0.508,-0.455,6923,74432,110122
8.38,838,13323,1,0,0,0,808.79211,874.40491,1564.33105,1687.2406,-0.03162,0.02149,0.99905,-1.505,0.49,-0.263,6924,74434,110123
8.39,839,13324,1,0,0,0,808.79211,874.40491,1564.25476,1687.08801,-0.03174,0.02063,0.99832,-1.558,0.63,-0.175,6924,74434,110123
8.4,840,13325,1,0,0,0,808.79211,874.40491,1564.40735,1687.01172,-0.03418,0.02124,1.00101,-1.733,0.543,-0.228,6925,74431,110130
8.41,841,13326,1,0,0,0,808.79211,874.40491,1564.10217,1687.2406,-0.03259,0.02026,0.99979,-1.733,0.543,-0.35,6925,74431,110130
8.42,842,13327,1,0,0,0,808.79211,874.40491,1564.25476,1687.01172,-0.03186,0.01929,0.99869,-1.628,0.368,-0.298,6926,74433,110133
8.43,843,13328,1,0,0,0,808.79211,874.40491,1564.40735,1687.08801,-0.03101,0.02124,1.00064,-1.523,0.368,-0.42,6926,74433,110133
8.44,844,13329,1,0,0,0,808.79211,874.40491,1564.17847,1687.31689,-0.03174,0.02283,1.00125,-1.523,0.473,-0.403,6927,74431,110130
8.45,845,13330,1,0,0,0,808.71582,874.40491,1564.40735,1687.01172,-0.03003,0.02185,1.00015,-1.68,0.613,-0.438,6927,74431,110130
8.46,846,13331,1,0,0,0,808.71582,874.40491,1564.25476,1687.08801,-0.02844,0.02234,1.0004,-1.75,0.508,-0.333,6931,74432,110137
8.47,847,13332,1,0,0,0,808.71582,874.40491,1564.17847,1687.2406,-0.02869,0.02234,0.99832,-1.785,0.508,-0.35,6931,74432,110137
8.48,848,13333,1,0,0,0,808.71582,874.40491,1564.25476,1686.93542,-0.03211,0.02307,0.99942,-1.803,0.648,-0.158,6929,74430,110145
8.49,849,13334,1,0,0,0,808.71582,874.40491,1564.63623,1687.08801,-0.03259,0.02149,1.00101,-1.873,0.56,-0.228,6929,74430,110145
8.5,850,13335,1,0,0,0,808.71582,874.17603,1564.33105,1687.31689,-0.03186,0.02026,1.00015,-1.943,0.613,-0.385,6931,74437,110153
8.51,851,13336,1,0,0,0,808.71582,874.17603,1564.10217,1687.01172,-0.03211,0.0199,1.0004,-1.96,0.543,-0.245,6931,74437,110153
8.52,852,13337,1,0,0,0,808.71582,874.17603,1564.48364,1687.08801,-0.03125,0.0199,0.99918,-1.803,0.438,-0.105,6931,74436,110152
8.53,853,13338,1,0,0,0,808.71582,874.17603,1564.40735,1687.16431,-0.03174,0.02039,0.99942,-1.838,0.49,-0.403,6931,74436,110152
8.54,854,13339,1,0,0,0,808.71582,874.17603,1564.33105,1686.85913,-0.03198,0.02051,1.00186,-2.083,0.42,-0.333,6934,74434,110153
8.55,855,13340,1,0,0,0,808.79211,874.17603,1564.40735,1687.08801,-0.0315,0.01941,1.00064,-2.03,0.455,-0.193,6934,74434,110153
8.56,856,13341,1,0,0,0,808.79211,874.17603,1564.17847,1687.16431,-0.03064,0.02014,1.00027,-1.978,0.56,-0.193,6934,74435,110156
8.57,857,13342,1,0,0,0,808.79211,874.17603,1564.33105,1686.78284,-0.03076,0.02014,0.99942,-1.75,0.455,-0.298,6934,74435,110156
8.58,858,13343,1,0,0,0,808.79211,874.17603,1564.40735,1686.85913,-0.03223,0.02124,0.99966,-1.82,0.56,-0.368,6934,74438,110160
8.59,859,13344,1,0,0,0,808.79211,874.17603,1564.33105,1687.01172,-0.03198,0.02051,0.99905,-1.96,0.578,-0.385,6934,74438,110160
8.6,860,13345,1,0,0,0,808.79211,874.32861,1564.33105,1686.93542,-0.03174,0.02222,1.00003,-1.89,0.595,-0.42,6939,74443,110171
8.61,861,13346,1,0,0,0,808.79211,874.32861,1564.40735,1686.93542,-0.03381,0.02222,1.00259,-1.855,0.525,-0.263,6939,74443,110171
8.62,862,13347,1,0,0,0,808.79211,874.32861,1564.40735,1687.08801,-0.03296,0.02075,1.00174,-1.82,0.42,-0.263,6940,74442,110174
8.63,863,13348,1,0,0,0,808.79211,874.32861,1564.33105,1686.85913,-0.03235,0.02075,1.00027,-1.943,0.455,-0.175,6940,74442,110174
8.64,864,13349,1,0,0,0,808.79211,874.32861,1564.55994,1687.01172,-0.03015,0.01978,1.00027,-1.733,0.438,-0.298,6942,74445,110181
8.65,865,13350,1,0,0,0,808.79211,874.32861,1564.48364,1687.01172,-0.0304,0.02087,0.99869,-1.575,0.543,-0.368,6942,74445,110181
8.66,866,13351,1,0,0,0,808.79211,874.32861,1564.33105,1686.78284,-0.0315,0.02295,0.99966,-1.593,0.56,-0.28,6942,74443,110185
8.67,867,13352,1,0,0,0,808.79211,874.32861,1564.63623,1687.01172,-0.0315,0.02271,0.99869,-1.803,0.63,-0.368,6942,74443,110185
8.68,868,13353,1,0,0,0,808.79211,874.32861,1564.33105,1687.01172,-0.03125,0.02307,1.0004,-1.943,0.56,-0.14,6945,74446,110189
8.69,869,13354,1,0,0,0,808.79211,874.32861,1564.40735,1686.93542,-0.03345,0.02344,1.00125,-1.96,0.543,-0.14,6945,74446,110189
8.7,870,13355,1,0,0,0,808.79211,874.32861,1564.40735,1686.85913,-0.03272,0.02063,1.00125,-2.17,0.683,-0.14,6950,74447,110191
8.71,871,13356,1,0,0,0,808.79211,874.32861,1564.10217,1687.08801,-0.03284,0.0199,1.00174,-2.153,0.473,-0.263,6950,74447,110191
8.72,872,13357,1,0,0,0,808.79211,874.32861,1564.25476,1686.93542,-0.03052,0.01758,1.00064,-2.118,0.403,-0.21,6950,74450,110195
8.73,873,13358,1,0,0,0,808.79211,874.32861,1564.48364,1687.01172,-0.03137,0.01782,0.99979,-1.803,0.473,-0.053,6950,74450,110195
8.74,874,13359,1,0,0,0,808.79211,874.32861,1564.33105,1687.2406,-0.03064,0.02136,1.00027,-1.54,0.543,-0.158,6953,74448,110202
8.75,875,13360,1,0,0,0,808.79211,874.32861,1564.55994,1686.78284,-0.03162,0.02222,1.00027,-1.593,0.508,-0.14,6953,74448,110202
8.76,876,13361,1,0,0,0,808.79211,874.32861,1564.25476,1686.70654,-0.03259,0.02014,0.99991,-1.82,0.525,0.018,6954,74451,110202
8.77,877,13362,1,0,0,0,808.79211,874.32861,1564.25476,1687.08801,-0.03345,0.01843,1.00015,-1.96,0.525,-0.088,6954,74451,110202
8.78,878,13363,1,0,0,0,808.79211,874.32861,1564.33105,1687.01172,-0.03162,0.01697,1.00015,-1.943,0.473,-0.158,6955,74452,110208
8.79,879,13364,1,0,0,0,808.79211,874.32861,1564.55994,1687.08801,-0.03247,0.01929,1.00113,-1.61,0.473,-0.403,6955,74452,110208
8.8,880,13365,1,0,0,0,808.79211,874.4812,1564.33105,1687.31689,-0.03003,0.02112,0.99991,-1.663,0.403,-0.315,6956,74451,110212
8.81,881,13366,1,0,0,0,808.79211,874.4812,1564.02588,1686.85913,-0.02905,0.02136,0.99918,-1.733,0.455,-0.053,6956,74451,110212
8.82,882,13367,1,0,0,0,808.79211,874.4812,1564.33105,1686.93542,-0.02869,0.0221,0.99673,-1.75,0.42,0.018,6959,74452,110213
8.83,883,13368,1,0,0,0,808.79211,874.4812,1564.40735,1687.01172,-0.03101,0.02332,1.00089,-1.96,0.613,-0.14,6959,74452,110213
8.84,884,13369,1,0,0,0,808.79211,874.4812,1564.33105,1686.78284,-0.03235,0.021,1.00101,-2.223,0.648,-0.193,6959,74450,110213
8.85,885,13370,1,0,0,0,808.9447,874.4812,1564.33105,1687.01172,-0.03442,0.0155,1.00064,-2.258,0.648,-0.193,6959,74450,110213
8.86,886,13371,1,0,0,0,808.9447,874.4812,1564.33105,1687.01172,-0.03381,0.01538,1.00052,-1.785,0.508,-0.175,6962,74450,110220
8.87,887,13372,1,0,0,0,808.9447,874.4812,1564.33105,1686.78284,-0.03223,0.01941,1.00003,-1.278,0.508,-0.263,6962,74450,110220
8.88,888,13373,1,0,0,0,808.9447,874.4812,1564.40735,1686.93542,-0.0343,0.0221,1.00137,-1.155,0.665,-0.263,6964,74452,110227
8.89,889,13374,1,0,0,0,808.9447,874.4812,1564.33105,1687.01172,-0.03296,0.02258,0.99966,-1.313,0.543,-0.263,6964,74452,110227
8.9,890,13375,1,0,0,0,808.9447,874.32861,1564.25476,1686.93542,-0.03027,0.01978,1.00174,-1.855,0.508,-0.333,6966,74453,110212
8.91,891,13376,1,0,0,0,808.9447,874.32861,1564.33105,1687.16431,-0.02942,0.01856,1.00186,-1.75,0.42,-0.14,6966,74453,110212
8.92,892,13377,1,0,0,0,808.9447,874.32861,1564.25476,1687.16431,-0.03003,0.01843,1.00101,-1.68,0.508,-0.263,6965,74448,110208
8.93,893,13378,1,0,0,0,808.9447,874.32861,1564.25476,1686.78284,-0.02966,0.01904,1.00052,-1.488,0.63,-0.263,6965,74448,110208
8.94,894,13379,1,0,0,0,808.9447,874.32861,1564.48364,1686.85913,-0.0304,0.02002,1.00113,-1.383,0.455,-0.315,6964,74448,110197
8.95,895,13380,1,0,0,0,808.79211,874.32861,1564.40735,1687.08801,-0.03272,0.02295,1.00027,-1.418,0.56,-0.368,6964,74448,110197
8.96,896,13381,1,0,0,0,808.79211,874.32861,1564.17847,1686.93542,-0.03162,0.02271,0.99747,-1.663,0.578,-0.368,6964,74448,110193
8.97,897,13382,1,0,0,0,808.79211,874.32861,1564.40735,1687.01172,-0.0332,0.02246,0.9993,-1.925,0.683,-0.42,6964,74448,110193
8.98,898,13383,1,0,0,0,808.79211,874.32861,1564.10217,1687.01172,-0.03357,0.02026,1.00027,-2.1,0.543,-0.263,6961,74449,110190
8.99,899,13384,1,0,0,0,808.79211,874.32861,1564.17847,1686.85913,-0.03272,0.01782,1.00052,-2.205,0.525,-0.333,6961,74449,110190
9.0,900,13385,1,0,0,0,808.79211,874.25232,1564.48364,1686.85913,-0.03125,0.01648,1.00015,-1.698,0.543,-0.35,6960,74444,110183
9.01,901,13386,1,0,0,0,808.79211,874.25232,1563.94958,1687.2406,-0.03101,0.01782,0.99832,-1.68,0.473,-0.543,6960,74444,110183
9.02,902,13387,1,0,0,0,808.79211,874.25232,1564.25476,1687.01172,-0.03101,0.02002,0.9982,-1.558,0.42,-0.35,6961,74442,110184
9.03,903,13388,1,0,0,0,808.79211,874.25232,1564.33105,1687.16431,-0.03211,0.02246,0.99954,-1.663,0.438,-0.49,6961,74442,110184
9.04,904,13389,1,0,0,0,808.79211,874.25232,1564.17847,1687.16431,-0.03113,0.02234,0.99942,-1.855,0.56,-0.543,6957,74442,110182
9.05,905,13390,1,0,0,0,808.63953,874.25232,1564.40735,1686.93542,-0.03015,0.02112,0.99942,-1.785,0.56,-0.508,6957,74442,110182
9.06,906,13391,1,0,0,0,808.63953,874.25232,1564.17847,1686.85913,-0.03113,0.02087,1.00259,-1.908,0.648,-0.543,6959,74439,110177
9.07,907,13392,1,0,0,0,808.63953,874.25232,1564.33105,1687.08801,-0.03052,0.02063,1.00089,-1.855,0.543,-0.473,6959,74439,110177
9.08,908,13393,1,0,0,0,808.63953,874.25232,1564.40735,1686.70654,-0.02954,0.01941,0.99905,-1.873,0.578,-0.35,6955,74436,110173
9.09,909,13394,1,0,0,0,808.63953,874.25232,1564.48364,1687.2406,-0.02918,0.02087,0.9993,-1.785,0.508,-0.385,6955,74436,110173
9.1,910,13395,1,0,0,0,808.63953,874.32861,1564.40735,1687.39319,-0.03162,0.02271,1.00064,-1.663,0.385,-0.438,6955,74436,110170
9.11,911,13396,1,0,0,0,808.63953,874.32861,1564.25476,1687.16431,-0.03088,0.021,0.99991,-1.838,0.473,-0.438,6955,74436,110170
9.12,912,13397,1,0,0,0,808.63953,874.32861,1564.48364,1687.16431,-0.03259,0.0199,0.99942,-2.17,0.508,-0.263,6957,74437,110173
9.13,913,13398,1,0,0,0,808.63953,874.32861,1564.40735,1687.39319,-0.03418,0.02039,0.99966,-2.223,0.543,-0.438,6957,74437,110173
9.14,914,13399,1,0,0,0,808.63953,874.32861,1564.40735,1686.93542,-0.0315,0.0199,0.99881,-1.943,0.49,-0.403,6951,74437,110174
9.15,915,13400,1,0,0,0,808.86841,874.32861,1564.48364,1687.08801,-0.03308,0.02051,0.99905,-1.733,0.543,-0.228,6951,74437,110174
9.16,916,13401,1,0,0,0,808.86841,874.32861,1564.33105,1686.93542,-0.03357,0.02039,1.00015,-1.75,0.525,-0.298,6950,74436,110174
9.17,917,13402,1,0,0,0,808.86841,874.32861,1564.40735,1687.01172,-0.03125,0.02051,0.99991,-1.785,0.455,-0.14,6950,74436,110174
9.18,918,13403,1,0,0,0,808.86841,874.32861,1564.63623,1687.16431,-0.02991,0.01904,0.9993,-2.083,0.42,-0.158,6953,74436,110176
9.19,919,13404,1,0,0,0,808.86841,874.32861,1564.25476,1687.16431,-0.02808,0.0177,0.99722,-2.048,0.473,-0.35,6953,74436,110176
9.2,920,13405,1,0,0,0,808.86841,874.5575,1564.40735,1686.78284,-0.0304,0.0199,0.99954,-2.083,0.49,-0.35,6950,74434,110175
9.21,921,13406,1,0,0,0,808.86841,874.5575,1564.17847,1687.01172,-0.03211,0.02026,1.00137,-2.1,0.578,-0.455,6950,74434,110175
9.22,922,13407,1,0,0,0,808.86841,874.5575,1564.33105,1687.08801,-0.03003,0.01892,1.00125,-2.048,0.438,-0.49,6951,74434,110175
9.23,923,13408,1,0,0,0,808.86841,874.5575,1564.33105,1686.93542,-0.03076,0.01978,1.00064,-1.978,0.543,-0.35,6951,74434,110175
9.24,924,13409,1,0,0,0,808.86841,874.5575,1564.40735,1687.08801,-0.03076,0.02063,1.00052,-1.838,0.578,-0.508,6947,74433,110177
9.25,925,13410,1,0,0,0,808.79211,874.5575,1564.40735,1687.08801,-0.03223,0.02197,0.99918,-1.663,0.438,-0.333,6947,74433,110177
9.26,926,13411,1,0,0,0,808.79211,874.5575,1564.25476,1687.01172,-0.03259,0.02063,0.99881,-1.698,0.473,-0.21,6950,74433,110177
9.27,927,13412,1,0,0,0,808.79211,874.5575,1564.48364,1687.08801,-0.03174,0.01856,0.99783,-1.768,0.49,-0.298,6950,74433,110177
9.28,928,13413,1,0,0,0,808.79211,874.5575,1564.33105,1687.08801,-0.03223,0.02026,0.99966,-1.68,0.543,-0.298,6950,74430,110173
9.29,929,13414,1,0,0,0,808.79211,874.5575,1564.33105,1687.01172,-0.03369,0.01892,1.00125,-1.768,0.56,-0.315,6950,74430,110173
9.3,930,13415,1,0,0,0,808.79211,874.32861,1564.40735,1686.93542,-0.03223,0.01831,1.00052,-1.89,0.455,-0.385,6949,74434,110181
9.31,931,13416,1,0,0,0,808.79211,874.32861,1564.10217,1687.16431,-0.03198,0.01672,1.00125,-1.768,0.42,-0.28,6949,74434,110181
9.32,932,13417,1,0,0,0,808.79211,874.32861,1564.17847,1687.85095,-0.03186,0.02087,1.00186,-1.593,0.578,-0.123,6948,74433,110178
9.33,933,13418,1,0,0,0,808.79211,874.32861,1564.33105,1686.93542,-0.0315,0.02161,1.00052,-1.47,0.56,-0.333,6948,74433,110178
9.34,934,13419,1,0,0,0,808.79211,874.32861,1564.25476,1686.93542,-0.03137,0.02246,1.00003,-1.505,0.543,-0.49,6949,74434,110183
9.35,935,13420,1,0,0,0,808.63953,874.32861,1564.02588,1688.00354,-0.02905,0.02271,0.99783,-1.523,0.56,-0.315,6949,74434,110183
9.36,936,13421,1,0,0,0,808.63953,874.32861,1564.25476,1686.85913,-0.03088,0.02234,0.99918,-1.61,0.525,-0.35,6947,74430,110186
9.37,937,13422,1,0,0,0,808.63953,874.32861,1564.25476,1687.08801,-0.03211,0.02087,1.00125,-1.855,0.648,-0.525,6947,74430,110186
9.38,938,13423,1,0,0,0,808.63953,874.32861,1564.25476,1686.70654,-0.03174,0.01721,1.00052,-1.785,0.648,-0.263,6949,74433,110188
9.39,939,13424,1,0,0,0,808.63953,874.32861,1564.48364,1686.85913,-0.03186,0.01721,1.00125,-1.663,0.613,-0.368,6949,74433,110188
9.4,940,13425,1,0,0,0,808.63953,874.4812,1564.17847,1687.16431,-0.03027,0.01807,0.99979,-1.435,0.455,-0.35,6950,74437,110195
9.41,941,13426,1,0,0,0,808.63953,874.4812,1564.10217,1686.78284,-0.03003,0.01929,1.00052,-1.505,0.543,-0.298,6950,74437,110195
9.42,942,13427,1,0,0,0,808.63953,874.4812,1564.33105,1686.78284,-0.03125,0.02051,0.99942,-1.418,0.56,-0.543,6950,74437,110195
9.43,943,13428,1,0,0,0,808.63953,874.4812,1564.17847,1686.93542,-0.03052,0.02112,0.99893,-1.435,0.613,-0.49,6952,74432,110194
9.44,944,13429,1,0,0,0,808.63953,874.4812,1564.25476,1686.93542,-0.03198,0.02197,0.99979,-1.575,0.56,-0.403,6952,74432,110194
9.45,945,13430,1,0,0,0,808.9447,874.4812,1564.33105,1686.93542,-0.03394,0.02173,1.00015,-1.558,0.63,-0.333,6952,74432,110189
9.46,946,13431,1,0,0,0,808.9447,874.4812,1564.17847,1687.08801,-0.03333,0.0199,1.00015,-1.575,0.665,-0.368,6952,74432,110189
9.47,947,13432,1,0,0,0,808.9447,874.4812,1564.33105,1687.2406,-0.03052,0.01624,0.99881,-1.383,0.49,-0.63,6956,74434,110199
9.48,948,13433,1,0,0,0,808.9447,874.4812,1564.40735,1686.93542,-0.03223,0.01941,0.99991,-1.313,0.403,-0.613,6956,74434,110199
9.49,949,13434,1,0,0,0,808.9447,874.4812,1564.25476,1687.08801,-0.03088,0.02063,1.00003,-1.155,0.403,-0.648,6955,74436,110208
9.5,950,13435,1,0,0,0,808.9447,874.25232,1564.33105,1686.93542,-0.03088,0.02149,0.99991,-1.208,0.455,-0.578,6957,74439,110209
9.51,951,13436,1,0,0,0,808.9447,874.25232,1564.02588,1686.93542,-0.02954,0.02185,0.9982,-1.278,0.403,-0.455,6957,74439,110209
9.52,952,13437,1,0,0,0,808.9447,874.25232,1564.25476,1687.08801,-0.0304,0.02295,1.00003,-1.278,0.56,-0.543,6957,74439,110209
