Time(s),SampleIndex,Seq,ValidFlag,InterpFlag,GapLen,MissingBefore,Uc1(mV),Uc2(mV),Ut1(mV),Ut2(mV),AccX(g),AccY(g),AccZ(g),GyroX(dps),GyroY(dps),GyroZ(dps),PPG_Green,PPG_Red,PPG_IR
0.0,0,7897,1,0,0,0,818.93921,888.74817,1584.32007,1715.39307,-0.02258,0.16175,0.98318,-0.403,0.07,-0.105,7182,76662,109134
0.01,1,7898,1,0,0,0,818.93921,888.74817,1584.39636,1715.85083,-0.02515,0.16334,0.98489,-0.403,0.228,-0.158,7178,76665,109135
0.02,2,7899,1,0,0,0,818.93921,888.74817,1584.39636,1715.39307,-0.02686,0.16211,0.98502,-0.543,0.315,-0.21,7178,76665,109135
0.03,3,7900,1,0,0,0,818.93921,888.74817,1584.39636,1715.31677,-0.02734,0.16163,0.98636,-0.63,0.123,-0.21,7179,76666,109133
0.04,4,7901,1,0,0,0,818.93921,888.74817,1584.09119,1715.39307,-0.02673,0.16163,0.98355,-0.473,0.14,-0.123,7179,76666,109133
0.05,5,7902,1,0,0,0,818.93921,888.74817,1584.39636,1715.16418,-0.02197,0.1648,0.98001,-0.543,0.14,-0.298,7180,76660,109130
0.06,6,7903,1,0,0,0,818.93921,888.74817,1584.47266,1715.16418,-0.02271,0.16565,0.98282,-0.84,0.228,0.053,7180,76660,109130
0.07,7,7904,1,0,0,0,818.93921,888.74817,1584.39636,1715.31677,-0.02234,0.16529,0.98453,-1.015,0.193,0.123,7177,76661,109128
0.08,8,7905,1,0,0,0,818.93921,888.74817,1584.39636,1715.24048,-0.02271,0.16492,0.98563,-1.26,0.28,0.0,7177,76661,109128
0.09,9,7906,1,0,0,0,818.93921,888.74817,1584.39636,1715.16418,-0.02307,0.16285,0.98575,-1.435,0.28,-0.018,7177,76664,109131
0.1,10,7907,1,0,0,0,818.93921,888.74817,1584.32007,1715.31677,-0.02503,0.15918,0.98428,-1.61,0.35,0.263,7177,76664,109131
0.11,11,7908,1,0,0,0,818.93921,888.74817,1584.32007,1715.16418,-0.02417,0.15882,0.98416,-1.295,0.333,0.158,7178,76667,109133
0.12,12,7909,1,0,0,0,818.93921,888.74817,1584.32007,1715.16418,-0.02368,0.16053,0.98379,-1.085,0.228,0.193,7178,76667,109133
0.13,13,7910,1,0,0,0,818.93921,888.74817,1584.47266,1715.08789,-0.02454,0.16492,0.98611,-1.068,0.21,0.14,7179,76663,109134
0.14,14,7911,1,0,0,0,818.93921,888.74817,1584.09119,1715.24048,-0.02466,0.16578,0.98477,-1.12,0.315,0.28,7179,76663,109134
0.15,15,7912,1,0,0,0,818.93921,888.74817,1584.32007,1715.24048,-0.0249,0.16346,0.98477,-1.82,0.245,0.263,7180,76665,109139
0.16,16,7913,1,0,0,0,818.93921,888.74817,1584.39636,1715.39307,-0.02503,0.16089,0.98453,-1.908,0.385,0.158,7180,76665,109139
0.17,17,7914,1,0,0,0,818.93921,888.74817,1584.39636,1715.16418,-0.02576,0.16016,0.98733,-1.873,0.315,0.123,7179,76668,109143
0.18,18,7915,1,0,0,0,818.93921,888.67188,1584.47266,1715.08789,-0.02539,0.15992,0.98721,-1.75,0.368,0.07,7179,76668,109143
0.19,19,7916,1,0,0,0,818.93921,888.67188,1584.32007,1716.00342,-0.02405,0.15979,0.98575,-1.61,0.315,0.14,7181,76668,109144
0.2,20,7917,1,0,0,0,818.93921,888.67188,1584.47266,1715.39307,-0.02393,0.15931,0.9866,-1.4,0.263,0.193,7181,76668,109144
0.21,21,7918,1,0,0,0,818.93921,888.67188,1584.39636,1715.39307,-0.02637,0.15967,0.98733,-1.225,0.263,0.228,7183,76667,109148
0.22,22,7919,1,0,0,0,818.93921,888.67188,1584.39636,1715.62195,-0.02539,0.15967,0.98526,-1.278,0.228,0.21,7183,76667,109148
0.23,23,7920,1,0,0,0,819.0155,888.67188,1584.54895,1715.39307,-0.02539,0.16053,0.98563,-1.453,0.333,0.088,7184,76669,109146
0.24,24,7921,1,0,0,0,819.0155,888.67188,1584.09119,1715.31677,-0.02625,0.16004,0.98758,-1.418,0.403,0.0,7184,76669,109146
0.25,25,7922,1,0,0,0,819.0155,888.67188,1584.39636,1715.54565,-0.02527,0.15821,0.98587,-1.383,0.455,-0.105,7182,76670,109149
0.26,26,7923,1,0,0,0,819.0155,888.67188,1584.39636,1715.31677,-0.02454,0.15674,0.98856,-1.225,0.35,-0.053,7182,76670,109149
0.27,27,7924,1,0,0,0,819.0155,888.67188,1584.39636,1715.39307,-0.02527,0.15516,0.98929,-1.05,0.28,-0.123,7182,76669,109151
0.28,28,7925,1,0,0,0,819.0155,888.97705,1584.54895,1715.69824,-0.02588,0.15516,0.98807,-0.595,0.21,-0.315,7182,76669,109151
0.29,29,7926,1,0,0,0,819.0155,888.97705,1584.24377,1715.39307,-0.02857,0.15455,0.9888,-0.333,0.263,-0.333,7184,76668,109152
0.3,30,7927,1,0,0,0,819.0155,888.97705,1584.32007,1715.39307,-0.02795,0.15491,0.98416,-0.263,0.333,-0.525,7184,76668,109152
0.31,31,7928,1,0,0,0,819.0155,888.97705,1584.39636,1715.46936,-0.026,0.15748,0.98184,-0.385,0.508,-0.893,7183,76670,109151
0.32,32,7929,1,0,0,0,819.0155,888.97705,1584.39636,1715.24048,-0.02429,0.15979,0.98135,-0.438,0.333,-0.823,7183,76670,109151
0.33,33,7930,1,0,0,0,819.0918,888.97705,1584.32007,1715.39307,-0.02539,0.16126,0.98526,-0.525,0.298,-0.823,7185,76670,109153
0.34,34,7931,1,0,0,0,819.0918,888.97705,1584.16748,1715.31677,-0.02698,0.16346,0.9866,-0.665,0.315,-0.963,7185,76670,109153
0.35,35,7932,1,0,0,0,819.0918,888.97705,1584.39636,1715.16418,-0.02576,0.16102,0.98807,-0.928,0.508,-0.998,7185,76670,109153
0.36,36,7933,1,0,0,0,819.0918,888.97705,1584.32007,1715.31677,-0.02441,0.16004,0.98514,-0.473,0.35,-1.033,7186,76672,109151
0.37,37,7934,1,0,0,0,819.0918,888.97705,1584.32007,1715.46936,-0.0249,0.1615,0.98599,-0.28,0.333,-0.875,7186,76672,109151
0.38,38,7935,1,0,0,0,819.0918,888.74817,1584.39636,1715.39307,-0.02466,0.1637,0.98526,-0.298,0.368,-0.7,7185,76674,109156
0.39,39,7936,1,0,0,0,819.0918,888.74817,1584.32007,1715.31677,-0.0249,0.16529,0.98343,-0.175,0.333,-0.595,7185,76674,109156
0.4,40,7937,1,0,0,0,819.0918,888.74817,1584.32007,1715.46936,-0.02332,0.16492,0.98306,-0.368,0.263,-0.438,7187,76671,109156
0.41,41,7938,1,0,0,0,819.0918,888.74817,1584.32007,1715.31677,-0.02197,0.16395,0.98233,-0.788,0.298,-0.315,7187,76671,109156
0.42,42,7939,1,0,0,0,819.0918,888.74817,1584.39636,1715.24048,-0.01917,0.16175,0.98331,-1.418,0.298,-0.35,7186,76671,109146
0.43,43,7940,1,0,0,0,818.86292,888.74817,1584.47266,1715.16418,-0.01978,0.16126,0.98587,-1.505,0.298,-0.28,7183,76669,109136
0.44,44,7941,1,0,0,0,818.86292,888.74817,1583.9386,1715.31677,-0.02063,0.16211,0.98575,-1.435,0.315,-0.315,7183,76669,109136
0.45,45,7942,1,0,0,0,818.86292,888.74817,1584.16748,1715.24048,-0.0249,0.15332,0.99124,-0.998,0.123,-0.245,7183,76669,109136
0.46,46,7943,1,0,0,0,818.86292,888.74817,1584.24377,1715.46936,-0.02271,0.15735,0.98782,0.123,-0.07,-0.14,7180,76663,109136
0.47,47,7944,1,0,0,0,818.86292,888.74817,1584.09119,1715.39307,-0.02271,0.17469,0.97671,-0.455,0.158,0.455,7180,76663,109136
0.48,48,7945,1,0,0,0,818.86292,888.82446,1584.39636,1715.16418,-0.02319,0.17408,0.97794,-1.523,0.298,0.193,7176,76665,109128
0.49,49,7946,1,0,0,0,818.86292,888.82446,1583.8623,1715.39307,-0.02795,0.16346,0.98392,-2.503,0.368,0.385,7176,76665,109128
0.5,50,7947,1,0,0,0,818.86292,888.82446,1584.09119,1715.31677,-0.02759,0.15625,0.98489,-2.853,0.403,0.438,7170,76669,109131
0.51,51,7948,1,0,0,0,818.86292,888.82446,1584.09119,1715.24048,-0.02722,0.1565,0.98648,-2.643,0.368,0.298,7170,76669,109131
0.52,52,7949,1,0,0,0,818.86292,888.82446,1584.24377,1715.77454,-0.02417,0.15503,0.98697,-1.803,0.21,0.49,7165,76665,109126
0.53,53,7950,1,0,0,0,818.86292,888.82446,1584.39636,1715.31677,-0.026,0.15699,0.98904,-1.785,0.263,0.21,7162,76663,109130
0.54,54,7951,1,0,0,0,818.86292,888.82446,1584.16748,1715.39307,-0.02478,0.15735,0.98917,-1.89,0.228,0.228,7162,76663,109130
0.55,55,7952,1,0,0,0,818.86292,888.82446,1584.32007,1715.69824,-0.02539,0.16138,0.99576,-1.663,0.123,0.123,7162,76663,109130
0.56,56,7953,1,0,0,0,818.86292,888.82446,1584.24377,1715.31677,-0.02625,0.15833,0.98709,-1.033,0.053,0.175,7154,76663,109122
0.57,57,7954,1,0,0,0,818.86292,888.82446,1584.39636,1715.24048,-0.02161,0.15625,0.97928,-1.593,0.193,0.088,7154,76663,109122
0.58,58,7955,1,0,0,0,818.86292,888.97705,1584.93042,1715.77454,-0.02393,0.15406,0.98416,-1.645,0.21,0.263,7153,76654,109114
0.59,59,7956,1,0,0,0,818.86292,888.97705,1584.09119,1715.31677,-0.02759,0.15247,0.99075,-1.453,0.263,0.298,7153,76654,109114
0.6,60,7957,1,0,0,0,818.86292,888.97705,1584.32007,1715.31677,-0.03003,0.15418,0.991,-1.068,0.368,0.228,7148,76658,109113
0.61,61,7958,1,0,0,0,818.86292,888.97705,1584.32007,1715.46936,-0.03174,0.15711,0.98904,-0.77,0.438,0.018,7148,76658,109113
0.62,62,7959,1,0,0,0,818.86292,888.97705,1584.39636,1715.24048,-0.02857,0.15296,0.98453,-0.63,0.088,-0.245,7141,76657,109110
0.63,63,7960,1,0,0,0,819.0155,888.97705,1584.39636,1715.31677,-0.02869,0.15271,0.98575,-0.875,0.21,-0.333,7138,76658,109099
0.64,64,7961,1,0,0,0,819.0155,888.97705,1584.16748,1715.39307,-0.02844,0.15076,0.9877,-0.91,0.368,-0.473,7138,76658,109099
0.65,65,7962,1,0,0,0,819.0155,888.97705,1584.32007,1715.31677,-0.02844,0.15271,0.98843,-0.735,0.438,-0.91,7138,76658,109099
0.66,66,7963,1,0,0,0,819.0155,888.97705,1584.39636,1715.31677,-0.02722,0.15296,0.98807,-0.193,0.403,-0.858,7138,76652,109098
0.67,67,7964,1,0,0,0,819.0155,888.97705,1584.32007,1715.46936,-0.02612,0.15687,0.98611,0.175,0.28,-0.788,7138,76652,109098
0.68,68,7965,1,0,0,0,819.0155,888.82446,1584.32007,1715.16418,-0.02454,0.16517,0.98416,0.455,0.245,-0.683,7130,76647,109091
0.69,69,7966,1,0,0,0,819.0155,888.82446,1584.16748,1715.16418,-0.02368,0.16517,0.98367,0.07,0.385,-0.578,7130,76647,109091
0.7,70,7967,1,0,0,0,819.0155,888.82446,1584.39636,1715.31677,-0.02319,0.16346,0.98379,-0.455,0.455,-0.788,7129,76647,109087
0.71,71,7968,1,0,0,0,819.0155,888.82446,1584.32007,1715.31677,-0.0221,0.16163,0.98404,-0.893,0.333,-0.84,7129,76647,109087
0.72,72,7969,1,0,0,0,819.0155,888.82446,1584.32007,1715.31677,-0.02197,0.15833,0.98477,-1.155,0.298,-0.508,7126,76644,109083
0.73,73,7970,1,0,0,0,818.93921,888.82446,1584.54895,1715.31677,-0.01953,0.15784,0.98428,-0.963,0.473,-0.77,7126,76644,109083
0.74,74,7971,1,0,0,0,818.93921,888.82446,1584.24377,1715.24048,-0.02112,0.16016,0.98648,-0.753,0.368,-0.403,7124,76641,109077
0.75,75,7972,1,0,0,0,818.93921,888.82446,1584.32007,1715.39307,-0.02197,0.16114,0.98624,-0.84,0.315,-0.403,7124,76641,109077
0.76,76,7973,1,0,0,0,818.93921,888.82446,1584.39636,1715.69824,-0.02405,0.15979,0.98758,-0.91,0.385,-0.525,7123,76640,109075
0.77,77,7974,1,0,0,0,818.93921,888.82446,1584.24377,1715.24048,-0.02454,0.15931,0.98648,-0.928,0.28,-0.245,7123,76640,109075
0.78,78,7975,1,0,0,0,818.93921,888.67188,1584.32007,1715.24048,-0.02649,0.16077,0.98514,-0.508,0.158,-0.158,7119,76638,109073
0.79,79,7976,1,0,0,0,818.93921,888.67188,1584.01489,1715.92712,-0.02649,0.16028,0.98404,-0.438,0.14,-0.035,7119,76638,109073
0.8,80,7977,1,0,0,0,818.93921,888.67188,1584.24377,1715.16418,-0.0282,0.16114,0.98514,-0.508,0.158,-0.123,7115,76638,109072
0.81,81,7978,1,0,0,0,818.93921,888.67188,1584.24377,1715.16418,-0.02747,0.15992,0.98526,-0.665,0.123,-0.123,7115,76638,109072
0.82,82,7979,1,0,0,0,818.93921,888.67188,1584.24377,1715.85083,-0.02747,0.15833,0.98843,-0.735,0.07,-0.088,7113,76634,109064
0.83,83,7980,1,0,0,0,818.93921,888.67188,1584.24377,1715.24048,-0.02649,0.15613,0.9866,-0.525,0.0,-0.263,7113,76634,109064
0.84,84,7981,1,0,0,0,818.93921,888.67188,1584.24377,1715.16418,-0.02527,0.15564,0.98367,-0.665,0.158,-0.315,7111,76633,109064
0.85,85,7982,1,0,0,0,818.93921,888.67188,1584.32007,1715.46936,-0.02393,0.15625,0.98453,-0.455,0.158,-0.21,7111,76633,109064
0.86,86,7983,1,0,0,0,818.93921,888.67188,1584.39636,1715.08789,-0.02466,0.15662,0.9855,-0.438,0.158,-0.105,7108,76631,109060
0.87,87,7984,1,0,0,0,818.93921,888.67188,1584.32007,1714.85901,-0.02441,0.15772,0.98453,-0.543,0.193,-0.263,7108,76631,109060
0.88,88,7985,1,0,0,0,818.93921,888.90076,1584.32007,1715.08789,-0.02454,0.16053,0.9855,-0.298,0.14,-0.333,7110,76630,109057
0.89,89,7986,1,0,0,0,818.93921,888.90076,1584.09119,1714.78271,-0.02466,0.16114,0.98587,-0.333,0.14,-0.263,7110,76630,109057
0.9,90,7987,1,0,0,0,818.93921,888.90076,1584.24377,1715.0116,-0.02454,0.16126,0.98282,-0.438,0.21,-0.333,7106,76629,109058
0.91,91,7988,1,0,0,0,818.93921,888.90076,1584.32007,1715.16418,-0.02515,0.16077,0.98355,-0.63,0.263,-0.193,7106,76629,109058
0.92,92,7989,1,0,0,0,818.93921,888.90076,1584.24377,1715.16418,-0.02454,0.15857,0.98441,-0.805,0.298,-0.123,7108,76629,109051
0.93,93,7990,1,0,0,0,819.0155,888.90076,1584.39636,1715.24048,-0.02576,0.16053,0.98477,-0.893,0.333,-0.21,7108,76629,109051
0.94,94,7991,1,0,0,0,819.0155,888.90076,1584.24377,1715.24048,-0.02637,0.16077,0.98636,-0.84,0.228,0.018,7104,76627,109050
0.95,95,7992,1,0,0,0,819.0155,888.90076,1584.32007,1715.08789,-0.02637,0.16089,0.98611,-0.998,0.193,-0.105,7104,76627,109050
0.96,96,7993,1,0,0,0,819.0155,888.90076,1584.32007,1715.0116,-0.02417,0.16065,0.98392,-0.98,0.123,-0.035,7106,76630,109057
0.97,97,7994,1,0,0,0,819.0155,888.90076,1584.24377,1715.24048,-0.02466,0.16041,0.9877,-0.823,0.193,-0.105,7106,76630,109057
0.98,98,7995,1,0,0,0,819.0155,888.3667,1584.39636,1714.85901,-0.02368,0.15894,0.98746,-1.173,0.228,-0.245,7104,76630,109055
0.99,99,7996,1,0,0,0,819.0155,888.3667,1583.9386,1715.0116,-0.02515,0.15821,0.9866,-1.068,0.21,-0.368,7104,76630,109055
1.0,100,7997,1,0,0,0,819.0155,888.3667,1584.24377,1715.16418,-0.02441,0.15784,0.98489,-0.945,0.28,-0.333,7104,76635,109063
1.01,101,7998,1,0,0,0,819.0155,888.3667,1584.09119,1714.9353,-0.02661,0.15784,0.98465,-0.945,0.333,-0.333,7104,76635,109063
1.02,102,7999,1,0,0,0,819.0155,888.3667,1584.32007,1715.08789,-0.02564,0.15894,0.98404,-0.735,0.263,-0.438,7102,76629,109055
1.03,103,8000,1,0,0,0,818.78662,888.3667,1584.62524,1715.0116,-0.02368,0.16065,0.98392,-0.945,0.228,-0.42,7102,76629,109055
1.04,104,8001,1,0,0,0,818.78662,888.3667,1583.9386,1714.9353,-0.02503,0.16126,0.98477,-1.085,0.228,-0.21,7102,76633,109060
1.05,105,8002,1,0,0,0,818.78662,888.3667,1584.32007,1715.0116,-0.02344,0.16272,0.98282,-1.383,0.333,-0.21,7102,76633,109060
1.06,106,8003,1,0,0,0,818.78662,888.3667,1584.32007,1715.92712,-0.02295,0.16175,0.98233,-1.488,0.368,-0.28,7105,76627,109056
1.07,107,8004,1,0,0,0,818.78662,888.3667,1584.24377,1714.9353,-0.02344,0.15979,0.98489,-1.558,0.368,-0.28,7105,76627,109056
1.08,108,8005,1,0,0,0,818.78662,888.67188,1584.47266,1714.9353,-0.02478,0.15882,0.9877,-1.435,0.385,0.105,7103,76632,109059
1.09,109,8006,1,0,0,0,818.78662,888.67188,1584.24377,1715.16418,-0.02515,0.15931,0.98746,-1.435,0.35,0.0,7103,76632,109059
1.1,110,8007,1,0,0,0,818.78662,888.67188,1584.39636,1715.92712,-0.0249,0.15796,0.98758,-1.435,0.368,-0.158,7104,76637,109061
1.11,111,8008,1,0,0,0,818.78662,888.67188,1584.39636,1715.0116,-0.02564,0.15748,0.98636,-1.173,0.403,0.14,7104,76637,109061
1.12,112,8009,1,0,0,0,818.78662,888.67188,1584.39636,1715.08789,-0.02539,0.15809,0.98709,-1.138,0.28,-0.088,7102,76634,109062
1.13,113,8010,1,0,0,0,818.93921,888.67188,1584.39636,1715.16418,-0.02698,0.15613,0.98489,-1.103,0.368,-0.315,7102,76634,109062
1.14,114,8011,1,0,0,0,818.93921,888.67188,1584.32007,1715.16418,-0.02942,0.15638,0.98782,-1.015,0.403,-0.228,7101,76634,109060
1.15,115,8012,1,0,0,0,818.93921,888.67188,1584.39636,1715.24048,-0.02869,0.15662,0.98721,-0.893,0.35,-0.42,7101,76634,109060
1.16,116,8013,1,0,0,0,818.93921,888.67188,1584.39636,1715.16418,-0.02686,0.15601,0.98587,-0.735,0.28,-0.385,7100,76631,109059
1.17,117,8014,1,0,0,0,818.93921,888.67188,1584.47266,1715.08789,-0.02649,0.15723,0.98453,-0.648,0.298,-0.438,7100,76631,109059
1.18,118,8015,1,0,0,0,818.93921,888.74817,1584.70154,1715.31677,-0.02527,0.15955,0.98355,-0.63,0.245,-0.473,7102,76636,109061
1.19,119,8016,1,0,0,0,818.93921,888.74817,1584.24377,1715.0116,-0.0238,0.16077,0.98233,-0.718,0.315,-0.368,7102,76636,109061
1.2,120,8017,1,0,0,0,818.93921,888.74817,1584.39636,1715.08789,-0.02356,0.16065,0.98831,-0.893,0.298,-0.245,7103,76635,109062
1.21,121,8018,1,0,0,0,818.93921,888.74817,1584.39636,1715.46936,-0.02429,0.16102,0.98819,-1.05,0.228,-0.228,7103,76635,109062
1.22,122,8019,1,0,0,0,818.93921,888.74817,1584.39636,1715.16418,-0.02295,0.15992,0.9855,-0.875,0.228,-0.28,7104,76637,109064
1.23,123,8020,1,0,0,0,819.0155,888.74817,1584.54895,1715.0116,-0.02429,0.15918,0.98648,-0.788,0.315,-0.228,7104,76637,109064
1.24,124,8021,1,0,0,0,819.0155,888.74817,1584.39636,1715.24048,-0.02332,0.15833,0.98563,-0.805,0.35,-0.175,7101,76637,109066
1.25,125,8022,1,0,0,0,819.0155,888.74817,1584.39636,1715.08789,-0.02527,0.15796,0.98563,-0.77,0.263,-0.175,7101,76637,109066
1.26,126,8023,1,0,0,0,819.0155,888.74817,1584.47266,1715.08789,-0.02551,0.15857,0.98587,-0.683,0.193,-0.158,7104,76636,109063
1.27,127,8024,1,0,0,0,819.0155,888.74817,1584.32007,1715.16418,-0.02319,0.15857,0.98233,-0.56,0.105,-0.105,7104,76636,109063
1.28,128,8025,1,0,0,0,819.0155,888.59558,1584.39636,1714.9353,-0.0249,0.16089,0.98428,-0.665,0.158,0.035,7109,76635,109068
1.29,129,8026,1,0,0,0,819.0155,888.59558,1584.09119,1715.16418,-0.02588,0.16053,0.98404,-0.893,0.175,-0.018,7109,76635,109068
1.3,130,8027,1,0,0,0,819.0155,888.59558,1584.24377,1715.16418,-0.02734,0.15748,0.98587,-1.278,0.368,0.035,7106,76637,109066
1.31,131,8028,1,0,0,0,819.0155,888.59558,1584.32007,1714.9353,-0.02661,0.1576,0.98514,-1.453,0.333,-0.158,7106,76637,109066
1.32,132,8029,1,0,0,0,819.0155,888.59558,1584.24377,1715.24048,-0.02612,0.15833,0.98465,-1.19,0.333,0.0,7108,76636,109062
1.33,133,8030,1,0,0,0,818.86292,888.59558,1584.93042,1715.16418,-0.02405,0.15748,0.98514,-1.155,0.298,-0.245,7108,76636,109062
1.34,134,8031,1,0,0,0,818.86292,888.59558,1584.01489,1714.85901,-0.02417,0.15796,0.9866,-1.19,0.368,-0.158,7109,76633,109062
1.35,135,8032,1,0,0,0,818.86292,888.59558,1584.24377,1715.0116,-0.02429,0.15772,0.98746,-1.33,0.21,-0.193,7109,76633,109062
1.36,136,8033,1,0,0,0,818.86292,888.59558,1584.24377,1715.39307,-0.02588,0.15687,0.98843,-1.033,0.228,0.07,7109,76638,109068
1.37,137,8034,1,0,0,0,818.86292,888.59558,1584.24377,1715.0116,-0.0282,0.15589,0.98917,-0.998,0.35,-0.228,7109,76638,109068
1.38,138,8035,1,0,0,0,818.86292,888.67188,1584.24377,1715.0116,-0.02795,0.15406,0.98575,-0.788,0.333,-0.07,7109,76639,109069
1.39,139,8036,1,0,0,0,818.86292,888.67188,1584.09119,1715.08789,-0.02759,0.15442,0.98441,-0.7,0.368,-0.245,7109,76639,109069
1.4,140,8037,1,0,0,0,818.86292,888.67188,1584.24377,1714.85901,-0.02734,0.15601,0.98306,-0.543,0.28,-0.158,7112,76637,109068
1.41,141,8038,1,0,0,0,818.86292,888.67188,1584.16748,1714.85901,-0.02515,0.16358,0.98392,-0.438,0.245,-0.158,7112,76637,109068
1.42,142,8039,1,0,0,0,818.86292,888.67188,1584.24377,1715.16418,-0.02503,0.16578,0.98392,-0.735,0.42,-0.158,7110,76637,109073
1.43,143,8040,1,0,0,0,818.93921,888.67188,1584.09119,1715.08789,-0.02588,0.16346,0.98575,-1.278,0.28,0.018,7110,76637,109073
1.44,144,8041,1,0,0,0,818.93921,888.67188,1584.32007,1715.0116,-0.02649,0.15894,0.98575,-1.768,0.28,0.14,7113,76637,109073
1.45,145,8042,1,0,0,0,818.93921,888.67188,1584.32007,1715.08789,-0.02673,0.15479,0.98489,-1.733,0.315,0.21,7113,76637,109073
1.46,146,8043,1,0,0,0,818.93921,888.67188,1584.32007,1715.0116,-0.02649,0.15552,0.98892,-1.085,0.21,0.175,7116,76643,109072
1.47,147,8044,1,0,0,0,818.93921,888.67188,1584.24377,1715.16418,-0.02783,0.15735,0.98758,-0.805,0.053,0.123,7116,76643,109072
1.48,148,8045,1,0,0,0,818.93921,888.59558,1584.32007,1715.0116,-0.0249,0.15735,0.98367,-0.56,0.158,0.105,7115,76640,109076
1.49,149,8046,1,0,0,0,818.93921,888.59558,1584.01489,1715.08789,-0.02307,0.16065,0.98672,-0.595,0.035,0.07,7115,76640,109076
1.5,150,8047,1,0,0,0,818.93921,888.59558,1584.24377,1715.08789,-0.02283,0.16028,0.98477,-0.945,0.035,0.07,7114,76636,109073
1.51,151,8048,1,0,0,0,818.93921,888.59558,1584.16748,1715.24048,-0.02026,0.15748,0.98587,-1.19,0.105,0.193,7114,76636,109073
1.52,152,8049,1,0,0,0,818.93921,888.59558,1584.09119,1715.0116,-0.02197,0.15516,0.98831,-1.295,0.123,0.035,7113,76642,109069
1.53,153,8050,1,0,0,0,818.86292,888.59558,1584.32007,1714.78271,-0.02417,0.1554,0.98733,-1.243,0.333,0.0,7113,76642,109069
1.54,154,8051,1,0,0,0,818.86292,888.59558,1583.9386,1715.08789,-0.02649,0.15601,0.98758,-1.068,0.175,0.035,7108,76638,109062
1.55,155,8052,1,0,0,0,818.86292,888.59558,1584.16748,1715.08789,-0.02857,0.15735,0.98904,-0.805,0.21,0.088,7108,76638,109062
1.56,156,8053,1,0,0,0,818.86292,888.59558,1584.01489,1715.08789,-0.02991,0.16126,0.97842,-0.578,0.245,-0.263,7105,76632,109055
1.57,157,8054,1,0,0,0,818.86292,888.59558,1584.01489,1715.54565,-0.02673,0.1554,0.97708,-0.928,0.228,0.0,7105,76632,109055
1.58,158,8055,1,0,0,0,818.86292,888.59558,1584.24377,1715.08789,-0.02124,0.15149,0.98001,-1.663,-0.018,0.035,7101,76632,109051
1.59,159,8056,1,0,0,0,818.86292,888.59558,1584.01489,1714.9353,-0.02625,0.14734,0.99014,-1.575,0.123,-0.053,7101,76632,109051
1.6,160,8057,1,0,0,0,818.86292,888.59558,1584.16748,1715.08789,-0.02991,0.14783,0.99466,-1.05,0.403,0.035,7095,76634,109047
1.61,161,8058,1,0,0,0,818.86292,888.59558,1584.16748,1714.9353,-0.03027,0.15332,0.99246,-0.35,0.385,-0.105,7095,76634,109047
1.62,162,8059,1,0,0,0,818.86292,888.59558,1584.24377,1714.9353,-0.02393,0.16224,0.9827,0.228,0.07,-0.263,7096,76633,109047
1.63,163,8060,1,0,0,0,819.0155,888.59558,1584.77783,1715.08789,-0.0238,0.16077,0.98001,-0.018,0.07,-0.35,7096,76633,109047
1.64,164,8061,1,0,0,0,819.0155,888.59558,1584.16748,1715.0116,-0.02478,0.16077,0.98196,-0.648,0.263,-0.613,7090,76630,109040
1.65,165,8062,1,0,0,0,819.0155,888.59558,1584.32007,1715.0116,-0.02478,0.15967,0.98184,-1.103,0.28,-0.56,7090,76630,109040
1.66,166,8063,1,0,0,0,819.0155,888.59558,1584.32007,1715.46936,-0.0249,0.15748,0.98831,-1.365,0.28,-0.595,7085,76627,109038
1.67,167,8064,1,0,0,0,819.0155,888.59558,1584.32007,1714.9353,-0.02564,0.15394,0.99014,-1.155,0.333,-0.298,7085,76627,109038
1.68,168,8065,1,0,0,0,819.0155,888.67188,1584.16748,1715.16418,-0.02515,0.15308,0.98636,-0.805,0.315,-0.368,7083,76630,109040
1.69,169,8066,1,0,0,0,819.0155,888.67188,1584.01489,1715.46936,-0.02503,0.15735,0.98563,-0.508,0.368,-0.368,7083,76630,109040
1.7,170,8067,1,0,0,0,819.0155,888.67188,1584.24377,1715.0116,-0.02344,0.15955,0.98648,-0.42,0.245,-0.385,7081,76626,109031
1.71,171,8068,1,0,0,0,819.0155,888.67188,1584.24377,1714.9353,-0.02527,0.16138,0.98526,-0.49,0.333,-0.438,7081,76626,109031
1.72,172,8069,1,0,0,0,819.0155,888.67188,1584.16748,1715.08789,-0.02527,0.15784,0.98477,-0.91,0.245,-0.543,7080,76629,109027
1.73,173,8070,1,0,0,0,818.86292,888.67188,1584.16748,1714.9353,-0.02808,0.15748,0.98306,-0.875,0.315,-0.578,7080,76629,109027
1.74,174,8071,1,0,0,0,818.86292,888.67188,1584.09119,1715.0116,-0.02808,0.15809,0.98502,-0.77,0.438,-0.403,7075,76626,109026
1.75,175,8072,1,0,0,0,818.86292,888.67188,1584.16748,1715.46936,-0.02649,0.1587,0.98465,-0.683,0.263,-0.21,7075,76626,109026
1.76,176,8073,1,0,0,0,818.86292,888.67188,1584.16748,1715.08789,-0.02576,0.16077,0.98672,-0.63,0.315,-0.175,7071,76625,109025
1.77,177,8074,1,0,0,0,818.86292,888.67188,1584.24377,1714.85901,-0.02503,0.15967,0.98636,-0.91,0.315,-0.35,7071,76625,109025
1.78,178,8075,1,0,0,0,818.86292,888.59558,1584.24377,1714.55383,-0.02319,0.15772,0.98489,-0.928,0.175,-0.035,7070,76622,109026
1.79,179,8076,1,0,0,0,818.86292,888.59558,1583.9386,1714.63013,-0.02283,0.15784,0.98453,-0.945,0.123,0.123,7070,76622,109026
1.8,180,8077,1,0,0,0,818.86292,888.59558,1584.32007,1714.85901,-0.02185,0.1587,0.98453,-0.98,0.245,-0.035,7070,76624,109019
1.81,181,8078,1,0,0,0,818.86292,888.59558,1584.24377,1715.0116,-0.02197,0.15955,0.98343,-1.068,0.228,-0.105,7070,76624,109019
1.82,182,8079,1,0,0,0,818.86292,888.59558,1584.24377,1715.0116,-0.02503,0.16041,0.98599,-1.225,0.385,-0.053,7074,76621,109018
1.83,183,8080,1,0,0,0,818.86292,888.59558,1584.39636,1714.78271,-0.02527,0.15955,0.98746,-1.295,0.298,0.018,7074,76621,109018
1.84,184,8081,1,0,0,0,818.86292,888.59558,1584.09119,1715.0116,-0.02649,0.15918,0.98636,-1.208,0.298,-0.053,7068,76619,109016
1.85,185,8082,1,0,0,0,818.86292,888.59558,1584.24377,1714.70642,-0.02429,0.15894,0.98257,-1.208,0.21,0.123,7068,76619,109016
1.86,186,8083,1,0,0,0,818.86292,888.59558,1584.24377,1714.78271,-0.02539,0.1576,0.98428,-1.12,0.228,0.28,7064,76620,109016
1.87,187,8084,1,0,0,0,818.86292,888.59558,1584.16748,1715.08789,-0.026,0.15784,0.98379,-1.243,0.175,0.315,7064,76620,109016
1.88,188,8085,1,0,0,0,818.86292,888.59558,1584.24377,1714.85901,-0.02564,0.15625,0.98685,-1.33,0.228,0.333,7064,76620,109013
1.89,189,8086,1,0,0,0,818.86292,888.59558,1584.09119,1714.78271,-0.02698,0.1554,0.98624,-1.295,0.28,0.245,7064,76620,109013
1.9,190,8087,1,0,0,0,818.86292,888.59558,1584.09119,1714.9353,-0.02722,0.1554,0.98807,-1.05,0.158,0.175,7062,76621,109006
1.91,191,8088,1,0,0,0,818.86292,888.59558,1584.24377,1714.78271,-0.02625,0.15735,0.98624,-0.823,0.053,0.263,7062,76621,109006
1.92,192,8089,1,0,0,0,818.86292,888.59558,1584.32007,1714.63013,-0.02576,0.15613,0.98465,-0.91,0.088,0.035,7063,76620,109014
1.93,193,8090,1,0,0,0,818.93921,888.59558,1584.54895,1714.9353,-0.02673,0.15455,0.98526,-1.208,0.298,0.158,7063,76620,109014
1.94,194,8091,1,0,0,0,818.93921,888.59558,1584.16748,1714.78271,-0.02649,0.15455,0.9877,-0.963,0.228,0.228,7061,76617,109010
1.95,195,8092,1,0,0,0,818.93921,888.59558,1584.24377,1714.70642,-0.026,0.15674,0.9877,-0.753,0.263,0.07,7061,76617,109010
1.96,196,8093,1,0,0,0,818.93921,888.59558,1584.24377,1714.9353,-0.02576,0.15857,0.9877,-0.718,0.193,0.07,7062,76619,109006
1.97,197,8094,1,0,0,0,818.93921,888.59558,1584.24377,1714.78271,-0.02429,0.1587,0.98611,-0.823,0.123,0.035,7062,76619,109006
1.98,198,8095,1,0,0,0,818.93921,888.67188,1584.16748,1714.70642,-0.02356,0.1565,0.98502,-0.788,0.105,0.333,7061,76615,109002
1.99,199,8096,1,0,0,0,818.93921,888.67188,1584.09119,1714.9353,-0.02527,0.15699,0.98648,-0.998,0.175,0.175,7061,76615,109002
2.0,200,8097,1,0,0,0,818.93921,888.67188,1584.24377,1715.16418,-0.02551,0.15674,0.98563,-1.085,0.385,-0.018,7059,76611,109007
2.01,201,8098,1,0,0,0,818.93921,888.67188,1584.32007,1714.63013,-0.02637,0.15589,0.98624,-1.138,0.28,0.053,7059,76611,109007
2.02,202,8099,1,0,0,0,818.93921,888.67188,1584.09119,1715.08789,-0.02576,0.15418,0.98563,-1.138,0.298,0.193,7061,76617,109006
2.03,203,8100,1,0,0,0,818.93921,888.67188,1584.32007,1715.08789,-0.02649,0.15528,0.98819,-1.103,0.403,-0.035,7061,76617,109006
2.04,204,8101,1,0,0,0,818.93921,888.67188,1584.01489,1715.24048,-0.02588,0.15638,0.98685,-0.998,0.298,0.123,7062,76622,109010
2.05,205,8102,1,0,0,0,818.93921,888.67188,1584.09119,1714.63013,-0.02588,0.15674,0.98697,-0.98,0.315,0.193,7062,76622,109010
2.06,206,8103,1,0,0,0,818.93921,888.67188,1584.09119,1714.47754,-0.02393,0.15589,0.9855,-0.945,0.333,-0.175,7062,76619,109009
2.07,207,8104,1,0,0,0,818.93921,888.67188,1584.16748,1714.78271,-0.02527,0.15589,0.98648,-0.875,0.158,-0.14,7062,76619,109009
2.08,208,8105,1,0,0,0,818.93921,888.67188,1584.39636,1714.78271,-0.02588,0.15455,0.98831,-0.613,0.228,-0.193,7063,76619,109008
2.09,209,8106,1,0,0,0,818.93921,888.67188,1583.70972,1714.70642,-0.02832,0.15503,0.98929,-0.508,0.228,-0.333,7063,76619,109008
2.1,210,8107,1,0,0,0,818.93921,888.67188,1584.01489,1714.85901,-0.02588,0.15381,0.98819,-0.245,0.21,-0.158,7063,76618,109007
2.11,211,8108,1,0,0,0,818.93921,888.67188,1584.01489,1714.9353,-0.02576,0.15613,0.98514,-0.14,0.088,-0.105,7063,76618,109007
2.12,212,8109,1,0,0,0,818.93921,888.67188,1584.09119,1714.63013,-0.0249,0.15931,0.98441,-0.105,0.175,-0.263,7065,76616,109006
2.13,213,8110,1,0,0,0,818.78662,888.67188,1584.16748,1714.78271,-0.02564,0.16028,0.98392,-0.368,0.21,-0.158,7065,76616,109006
2.14,214,8111,1,0,0,0,818.78662,888.67188,1584.01489,1715.31677,-0.02637,0.15967,0.98611,-0.525,0.158,-0.088,7065,76619,109014
2.15,215,8112,1,0,0,0,818.78662,888.67188,1584.16748,1714.85901,-0.02503,0.15687,0.98672,-0.63,0.28,-0.053,7065,76619,109014
2.16,216,8113,1,0,0,0,818.78662,888.67188,1584.16748,1714.63013,-0.02344,0.1554,0.98477,-0.665,0.123,-0.088,7066,76621,109015
2.17,217,8114,1,0,0,0,818.78662,888.67188,1584.09119,1714.85901,-0.02344,0.1554,0.98538,-0.438,0.193,-0.105,7066,76621,109015
2.18,218,8115,1,0,0,0,818.78662,888.51929,1584.16748,1714.85901,-0.02515,0.15833,0.98697,-0.508,0.123,-0.263,7067,76621,109014
2.19,219,8116,1,0,0,0,818.78662,888.51929,1584.01489,1714.9353,-0.02625,0.15772,0.98624,-0.718,0.21,-0.245,7067,76621,109014
2.2,220,8117,1,0,0,0,818.78662,888.51929,1584.24377,1715.0116,-0.02527,0.15809,0.98575,-0.648,0.14,-0.088,7069,76626,109019
2.21,221,8118,1,0,0,0,818.78662,888.51929,1584.09119,1715.0116,-0.02625,0.15857,0.98758,-0.473,0.158,-0.105,7069,76626,109019
2.22,222,8119,1,0,0,0,818.78662,888.51929,1584.16748,1714.9353,-0.0249,0.15772,0.98489,-0.578,0.193,-0.018,7069,76625,109016
2.23,223,8120,1,0,0,0,818.86292,888.51929,1584.32007,1715.08789,-0.02564,0.15711,0.98575,-0.648,0.123,-0.263,7069,76625,109016
2.24,224,8121,1,0,0,0,818.86292,888.51929,1584.01489,1714.9353,-0.02588,0.1565,0.9877,-0.683,0.14,-0.21,7072,76630,109023
2.25,225,8122,1,0,0,0,818.86292,888.51929,1584.09119,1714.85901,-0.02564,0.1565,0.98477,-0.613,0.158,-0.193,7072,76630,109023
2.26,226,8123,1,0,0,0,818.86292,888.51929,1584.16748,1715.0116,-0.02686,0.15772,0.98538,-0.56,0.105,-0.105,7072,76632,109027
2.27,227,8124,1,0,0,0,818.86292,888.51929,1584.24377,1715.08789,-0.02527,0.15723,0.98502,-0.7,0.123,-0.263,7072,76632,109027
2.28,228,8125,1,0,0,0,818.86292,888.67188,1584.16748,1715.0116,-0.02527,0.15723,0.98563,-0.578,0.14,-0.42,7073,76634,109030
2.29,229,8126,1,0,0,0,818.86292,888.67188,1583.8623,1715.85083,-0.02527,0.15833,0.98575,-0.578,0.263,-0.315,7073,76634,109030
2.3,230,8127,1,0,0,0,818.86292,888.67188,1584.16748,1715.0116,-0.02564,0.15748,0.98697,-0.63,0.193,-0.263,7075,76635,109033
2.31,231,8128,1,0,0,0,818.86292,888.67188,1584.09119,1715.0116,-0.02551,0.15772,0.9855,-0.735,0.228,-0.158,7075,76635,109033
2.32,232,8129,1,0,0,0,818.86292,888.67188,1584.09119,1715.08789,-0.02466,0.1565,0.98502,-0.735,0.21,-0.123,7078,76634,109033
2.33,233,8130,1,0,0,0,818.93921,888.67188,1584.24377,1714.85901,-0.02564,0.15784,0.98599,-0.77,0.28,-0.35,7078,76634,109033
2.34,234,8131,1,0,0,0,818.93921,888.67188,1584.01489,1714.9353,-0.02503,0.15796,0.9866,-0.718,0.28,-0.21,7082,76634,109035
2.35,235,8132,1,0,0,0,818.93921,888.67188,1584.09119,1715.16418,-0.02649,0.15784,0.98672,-0.875,0.175,-0.053,7082,76634,109035
2.36,236,8133,1,0,0,0,818.93921,888.67188,1584.09119,1715.31677,-0.02515,0.15821,0.98502,-0.735,0.21,-0.28,7084,76635,109036
2.37,237,8134,1,0,0,0,818.93921,888.67188,1584.16748,1715.24048,-0.02466,0.15906,0.98318,-0.7,0.333,-0.385,7084,76635,109036
2.38,238,8135,1,0,0,0,818.93921,888.74817,1584.39636,1715.16418,-0.0249,0.15845,0.98392,-0.788,0.298,-0.298,7084,76634,109035
2.39,239,8136,1,0,0,0,818.93921,888.74817,1583.8623,1715.08789,-0.02527,0.15821,0.98733,-1.19,0.315,-0.14,7084,76634,109035
2.4,240,8137,1,0,0,0,818.93921,888.74817,1584.09119,1715.16418,-0.026,0.15442,0.98831,-1.12,0.35,-0.315,7085,76635,109038
2.41,241,8138,1,0,0,0,818.93921,888.74817,1584.16748,1714.9353,-0.02661,0.15479,0.9899,-1.068,0.298,-0.333,7085,76635,109038
2.42,242,8139,1,0,0,0,818.93921,888.74817,1584.16748,1714.70642,-0.02808,0.15601,0.9899,-0.578,0.368,-0.508,7086,76637,109048
2.43,243,8140,1,0,0,0,818.86292,888.74817,1584.16748,1714.9353,-0.02844,0.1554,0.98453,-0.42,0.35,-0.315,7086,76637,109048
2.44,244,8141,1,0,0,0,818.86292,888.74817,1584.01489,1714.9353,-0.02661,0.1576,0.98282,-0.368,0.175,-0.245,7087,76641,109050
2.45,245,8142,1,0,0,0,818.86292,888.74817,1584.16748,1715.0116,-0.02112,0.16211,0.9816,-0.385,0.088,-0.315,7087,76641,109050
2.46,246,8143,1,0,0,0,818.86292,888.74817,1584.16748,1714.70642,-0.02344,0.16248,0.98465,-0.7,0.263,-0.263,7090,76639,109051
2.47,247,8144,1,0,0,0,818.86292,888.74817,1584.09119,1714.85901,-0.02454,0.1615,0.98758,-1.173,0.368,-0.175,7090,76639,109051
2.48,248,8145,1,0,0,0,818.86292,888.74817,1584.01489,1715.08789,-0.02649,0.15772,0.98746,-1.295,0.42,-0.123,7090,76641,109056
2.49,249,8146,1,0,0,0,818.86292,888.74817,1583.9386,1715.08789,-0.02857,0.15406,0.98672,-1.173,0.333,0.0,7090,76641,109056
2.5,250,8147,1,0,0,0,818.86292,888.74817,1584.24377,1715.39307,-0.02832,0.15735,0.98733,-0.91,0.228,-0.175,7090,76641,109056
2.51,251,8148,1,0,0,0,818.86292,888.74817,1584.16748,1715.16418,-0.0249,0.15711,0.98477,-0.28,0.035,-0.245,7092,76645,109061
2.52,252,8149,1,0,0,0,818.86292,888.74817,1584.16748,1715.24048,-0.02625,0.15809,0.98453,-0.245,0.088,-0.088,7092,76645,109061
2.53,253,8150,1,0,0,0,818.86292,888.74817,1584.24377,1715.16418,-0.02576,0.15894,0.98428,-0.298,0.193,-0.193,7096,76645,109063
2.54,254,8151,1,0,0,0,818.86292,888.74817,1583.8623,1715.31677,-0.02454,0.15748,0.98453,-0.525,0.315,-0.403,7096,76645,109063
2.55,255,8152,1,0,0,0,818.86292,888.74817,1584.16748,1715.24048,-0.02429,0.15699,0.98685,-0.77,0.193,-0.315,7096,76642,109059
2.56,256,8153,1,0,0,0,818.86292,888.74817,1584.09119,1715.46936,-0.02173,0.15662,0.98648,-0.42,0.158,-0.263,7096,76642,109059
2.57,257,8154,1,0,0,0,818.86292,888.74817,1584.09119,1715.16418,-0.0238,0.15845,0.98697,-0.21,0.14,-0.158,7093,76646,109051
2.58,258,8155,1,0,0,0,818.86292,888.82446,1584.16748,1715.16418,-0.02503,0.16053,0.98636,-0.263,0.263,-0.263,7092,76642,109048
2.59,259,8156,1,0,0,0,818.86292,888.82446,1583.78601,1715.31677,-0.02503,0.16065,0.98379,-0.315,0.21,-0.14,7092,76642,109048
2.6,260,8157,1,0,0,0,818.86292,888.82446,1583.9386,1715.31677,-0.02612,0.15918,0.98404,-0.438,0.105,-0.35,7092,76642,109048
2.61,261,8158,1,0,0,0,818.86292,888.82446,1584.01489,1715.16418,-0.02588,0.15809,0.98416,-0.455,0.088,-0.053,7090,76644,109051
2.62,262,8159,1,0,0,0,818.86292,888.82446,1583.8623,1715.39307,-0.02564,0.15638,0.98392,-0.298,0.228,-0.088,7090,76644,109051
2.63,263,8160,1,0,0,0,818.78662,888.82446,1584.16748,1715.16418,-0.02649,0.15748,0.9855,-0.385,0.228,-0.21,7087,76641,109046
2.64,264,8161,1,0,0,0,818.78662,888.82446,1583.8623,1715.16418,-0.02637,0.15735,0.98489,-0.525,0.123,-0.123,7087,76641,109046
2.65,265,8162,1,0,0,0,818.78662,888.82446,1584.01489,1715.31677,-0.02527,0.15857,0.98526,-0.368,0.21,-0.21,7083,76641,109043
2.66,266,8163,1,0,0,0,818.78662,888.82446,1584.09119,1715.24048,-0.02673,0.15943,0.98758,-0.595,0.14,-0.508,7083,76641,109043
2.67,267,8164,1,0,0,0,818.78662,888.82446,1584.09119,1715.16418,-0.02466,0.15857,0.98428,-0.63,0.245,-0.35,7081,76640,109042
2.68,268,8165,1,0,0,0,818.78662,888.82446,1584.70154,1715.31677,-0.02478,0.1587,0.98502,-0.648,0.263,-0.35,7081,76636,109038
2.69,269,8166,1,0,0,0,818.78662,888.82446,1583.9386,1715.16418,-0.02417,0.15796,0.98441,-0.718,0.333,-0.298,7081,76636,109038
2.7,270,8167,1,0,0,0,818.78662,888.82446,1584.09119,1715.39307,-0.02576,0.15931,0.98575,-0.578,0.193,-0.175,7081,76636,109038
2.71,271,8168,1,0,0,0,818.78662,888.82446,1584.09119,1715.24048,-0.026,0.15979,0.98697,-0.578,0.245,-0.35,7079,76641,109034
2.72,272,8169,1,0,0,0,818.78662,888.82446,1584.16748,1715.54565,-0.02405,0.16016,0.98392,-0.613,0.193,-0.21,7079,76641,109034
2.73,273,8170,1,0,0,0,818.86292,888.82446,1584.09119,1715.24048,-0.02393,0.16199,0.98294,-0.613,0.175,-0.228,7075,76637,109031
2.74,274,8171,1,0,0,0,818.86292,888.82446,1583.9386,1715.62195,-0.02258,0.16248,0.98477,-0.665,0.245,-0.228,7075,76637,109031
2.75,275,8172,1,0,0,0,818.86292,888.82446,1584.09119,1715.16418,-0.02197,0.16236,0.98721,-0.683,0.193,-0.018,7073,76637,109029
2.76,276,8173,1,0,0,0,818.86292,888.82446,1584.16748,1715.16418,-0.02417,0.1615,0.98685,-0.718,0.298,-0.088,7073,76637,109029
2.77,277,8174,1,0,0,0,818.86292,888.82446,1584.16748,1715.31677,-0.02588,0.15503,0.98343,-0.858,0.228,-0.158,7074,76640,109024
2.78,278,8175,1,0,0,0,818.86292,888.90076,1584.16748,1715.16418,-0.02576,0.15638,0.98379,-0.49,0.14,0.035,7073,76637,109022
2.79,279,8176,1,0,0,0,818.86292,888.90076,1584.09119,1715.08789,-0.02441,0.16102,0.98465,-0.315,0.088,-0.228,7073,76637,109022
2.8,280,8177,1,0,0,0,818.86292,888.90076,1584.16748,1715.39307,-0.02625,0.1648,0.98575,-0.28,0.175,-0.158,7073,76637,109022
2.81,281,8178,1,0,0,0,818.86292,888.90076,1584.16748,1715.24048,-0.02795,0.16346,0.98758,-0.403,0.333,-0.053,7073,76636,109024
2.82,282,8179,1,0,0,0,818.86292,888.90076,1584.16748,1715.16418,-0.0238,0.15796,0.98441,-0.875,0.175,0.053,7073,76636,109024
2.83,283,8180,1,0,0,0,818.86292,888.90076,1584.24377,1714.9353,-0.02234,0.15784,0.98355,-0.788,0.175,-0.053,7069,76635,109023
2.84,284,8181,1,0,0,0,818.86292,888.90076,1583.9386,1715.16418,-0.02344,0.15918,0.9855,-0.665,0.21,-0.088,7069,76635,109023
2.85,285,8182,1,0,0,0,818.86292,888.90076,1584.47266,1715.31677,-0.02441,0.16175,0.98599,-0.525,0.245,-0.175,7069,76630,109018
2.86,286,8183,1,0,0,0,818.86292,888.90076,1584.09119,1715.31677,-0.02222,0.1615,0.98538,-0.77,0.175,-0.105,7069,76630,109018
2.87,287,8184,1,0,0,0,818.86292,888.90076,1584.01489,1715.31677,-0.02429,0.16065,0.98599,-1.068,0.35,-0.035,7071,76631,109013
2.88,288,8185,1,0,0,0,818.86292,888.82446,1584.24377,1715.24048,-0.02393,0.16041,0.98526,-0.91,0.28,0.123,7071,76631,109013
2.89,289,8186,1,0,0,0,818.86292,888.82446,1584.01489,1715.54565,-0.02576,0.16126,0.98538,-0.718,0.333,0.018,7070,76626,109006
2.9,290,8187,1,0,0,0,818.86292,888.82446,1584.01489,1715.31677,-0.02625,0.16236,0.98477,-0.805,0.315,-0.228,7070,76626,109006
2.91,291,8188,1,0,0,0,818.86292,888.82446,1584.16748,1715.31677,-0.0249,0.1626,0.98587,-0.928,0.053,-0.193,7068,76623,109010
2.92,292,8189,1,0,0,0,818.86292,888.82446,1584.16748,1715.69824,-0.02527,0.16065,0.9866,-0.98,0.228,0.035,7068,76623,109010
2.93,293,8190,1,0,0,0,818.93921,888.82446,1584.16748,1715.77454,-0.02393,0.15894,0.98367,-1.068,0.368,0.158,7066,76628,109008
2.94,294,8191,1,0,0,0,818.93921,888.82446,1584.01489,1715.16418,-0.02417,0.15821,0.98465,-1.085,0.228,0.175,7066,76628,109008
2.95,295,8192,1,0,0,0,818.93921,888.82446,1584.09119,1715.24048,-0.02466,0.15845,0.9855,-0.998,0.175,0.14,7066,76630,109008
2.96,296,8193,1,0,0,0,818.93921,888.82446,1584.09119,1715.16418,-0.02454,0.15906,0.98611,-0.998,0.123,-0.053,7066,76630,109008
2.97,297,8194,1,0,0,0,818.93921,888.82446,1584.24377,1715.24048,-0.02649,0.15943,0.98733,-0.753,0.298,-0.088,7065,76629,109010
2.98,298,8195,1,0,0,0,818.93921,888.74817,1584.24377,1715.08789,-0.026,0.16028,0.98538,-0.77,0.333,-0.053,7065,76629,109010
2.99,299,8196,1,0,0,0,818.93921,888.74817,1584.01489,1715.0116,-0.02625,0.15979,0.98416,-0.84,0.21,0.07,7066,76626,109007
3.0,300,8197,1,0,0,0,818.93921,888.74817,1583.9386,1715.24048,-0.02564,0.15894,0.98514,-0.84,0.158,0.018,7066,76626,109007
3.01,301,8198,1,0,0,0,818.93921,888.74817,1583.9386,1715.46936,-0.02332,0.15845,0.98404,-0.7,0.123,0.018,7066,76629,109007
3.02,302,8199,1,0,0,0,818.93921,888.74817,1584.16748,1715.08789,-0.02417,0.16089,0.98526,-0.735,0.088,-0.035,7066,76629,109007
3.03,303,8200,1,0,0,0,818.93921,888.74817,1584.16748,1715.16418,-0.02551,0.1615,0.98538,-0.858,0.228,-0.105,7066,76625,109010
3.04,304,8201,1,0,0,0,818.93921,888.74817,1584.01489,1715.31677,-0.0249,0.16065,0.98502,-0.98,0.175,-0.228,7066,76625,109010
3.05,305,8202,1,0,0,0,818.93921,888.74817,1584.32007,1715.16418,-0.02551,0.16053,0.98477,-1.085,0.245,-0.088,7066,76624,109000
3.06,306,8203,1,0,0,0,818.93921,888.74817,1584.32007,1715.16418,-0.02368,0.15943,0.98367,-0.98,0.333,-0.018,7066,76624,109000
3.07,307,8204,1,0,0,0,818.93921,888.74817,1584.16748,1715.39307,-0.02332,0.15833,0.98245,-1.033,0.333,-0.158,7068,76624,109001
3.08,308,8205,1,0,0,0,818.93921,888.74817,1584.32007,1715.46936,-0.0271,0.16028,0.98502,-1.26,0.35,0.053,7068,76624,109001
3.09,309,8206,1,0,0,0,818.93921,888.74817,1584.01489,1715.31677,-0.02576,0.15967,0.98648,-1.348,0.263,0.018,7068,76622,108998
3.1,310,8207,1,0,0,0,818.93921,888.74817,1584.09119,1715.85083,-0.02527,0.15918,0.98611,-1.26,0.315,-0.228,7068,76622,108998
3.11,311,8208,1,0,0,0,818.93921,888.74817,1584.01489,1715.08789,-0.02429,0.16065,0.98721,-1.19,0.245,-0.088,7072,76622,109000
3.12,312,8209,1,0,0,0,818.93921,888.74817,1584.24377,1715.24048,-0.02393,0.15967,0.98697,-1.12,0.28,-0.228,7072,76622,109000
3.13,313,8210,1,0,0,0,818.78662,888.74817,1584.47266,1714.78271,-0.026,0.15564,0.98709,-1.12,0.228,-0.245,7072,76625,108999
3.14,314,8211,1,0,0,0,818.78662,888.74817,1583.8623,1714.9353,-0.02832,0.15601,0.98746,-0.84,0.21,-0.053,7072,76625,108999
3.15,315,8212,1,0,0,0,818.78662,888.74817,1584.09119,1715.0116,-0.026,0.15638,0.98392,-0.578,0.14,-0.193,7072,76628,109006
3.16,316,8213,1,0,0,0,818.78662,888.74817,1583.9386,1715.31677,-0.02539,0.15894,0.98282,-0.403,0.158,0.018,7072,76628,109006
3.17,317,8214,1,0,0,0,818.78662,888.74817,1584.01489,1715.0116,-0.02466,0.16077,0.98331,-0.595,0.263,-0.088,7074,76626,109009
3.18,318,8215,1,0,0,0,818.78662,888.74817,1584.16748,1715.0116,-0.0249,0.16358,0.98746,-0.665,0.228,0.018,7074,76626,109009
3.19,319,8216,1,0,0,0,818.78662,888.74817,1584.09119,1715.24048,-0.02503,0.16089,0.98648,-0.805,0.315,-0.07,7075,76626,109009
3.2,320,8217,1,0,0,0,818.78662,888.74817,1584.16748,1715.16418,-0.02515,0.15833,0.98538,-1.103,0.175,-0.105,7075,76626,109009
3.21,321,8218,1,0,0,0,818.78662,888.74817,1584.16748,1715.16418,-0.02441,0.15638,0.98672,-1.138,0.315,0.0,7075,76627,109011
3.22,322,8219,1,0,0,0,818.78662,888.74817,1584.09119,1715.08789,-0.02503,0.15674,0.98587,-1.173,0.263,-0.035,7075,76627,109011
3.23,323,8220,1,0,0,0,819.0155,888.74817,1584.24377,1715.08789,-0.02405,0.16016,0.98587,-0.735,0.245,-0.175,7074,76623,109008
3.24,324,8221,1,0,0,0,819.0155,888.74817,1584.09119,1715.39307,-0.02564,0.16028,0.98563,-0.77,0.28,-0.28,7074,76623,109008
3.25,325,8222,1,0,0,0,819.0155,888.74817,1584.24377,1715.16418,-0.02551,0.16089,0.98465,-0.753,0.175,-0.105,7079,76625,109010
3.26,326,8223,1,0,0,0,819.0155,888.74817,1584.24377,1714.9353,-0.02625,0.16016,0.98563,-0.718,0.158,0.035,7079,76625,109010
3.27,327,8224,1,0,0,0,819.0155,888.74817,1584.32007,1715.16418,-0.02637,0.16004,0.98636,-0.91,0.263,-0.035,7079,76626,109011
3.28,328,8225,1,0,0,0,819.0155,889.28223,1584.62524,1715.54565,-0.02576,0.15906,0.98648,-0.91,0.228,-0.245,7079,76626,109011
3.29,329,8226,1,0,0,0,819.0155,889.28223,1584.09119,1715.08789,-0.02576,0.15748,0.98514,-0.91,0.263,0.035,7079,76627,109016
3.3,330,8227,1,0,0,0,819.0155,889.28223,1584.24377,1714.9353,-0.02503,0.15735,0.98392,-0.98,0.193,0.0,7079,76627,109016
3.31,331,8228,1,0,0,0,819.0155,889.28223,1584.24377,1715.31677,-0.02612,0.15918,0.98587,-0.77,0.158,-0.123,7081,76629,109013
3.32,332,8229,1,0,0,0,819.0155,889.28223,1584.16748,1714.9353,-0.02539,0.15931,0.98502,-0.753,0.21,-0.053,7081,76629,109013
3.33,333,8230,1,0,0,0,818.93921,889.28223,1584.16748,1715.0116,-0.02503,0.15918,0.98636,-0.998,0.263,-0.035,7084,76627,109013
3.34,334,8231,1,0,0,0,818.93921,889.28223,1583.9386,1715.54565,-0.02515,0.15931,0.98502,-0.823,0.28,-0.175,7084,76627,109013
3.35,335,8232,1,0,0,0,818.93921,889.28223,1584.16748,1715.16418,-0.0249,0.15882,0.98538,-0.7,0.315,-0.105,7087,76627,109014
3.36,336,8233,1,0,0,0,818.93921,889.28223,1584.24377,1715.24048,-0.02564,0.16041,0.98526,-0.7,0.333,-0.14,7087,76627,109014
3.37,337,8234,1,0,0,0,818.93921,889.28223,1584.16748,1715.39307,-0.02527,0.16053,0.98721,-0.648,0.28,-0.245,7083,76623,109012
3.38,338,8235,1,0,0,0,818.93921,888.74817,1584.16748,1715.08789,-0.02649,0.16089,0.98453,-0.788,0.298,-0.088,7083,76623,109012
3.39,339,8236,1,0,0,0,818.93921,888.74817,1584.09119,1715.85083,-0.02551,0.16004,0.98404,-0.893,0.28,-0.193,7089,76624,109014
3.4,340,8237,1,0,0,0,818.93921,888.74817,1584.09119,1715.46936,-0.02466,0.15748,0.98502,-0.91,0.263,-0.088,7089,76624,109014
3.41,341,8238,1,0,0,0,818.93921,888.74817,1584.16748,1715.39307,-0.02539,0.15674,0.9855,-0.945,0.228,-0.105,7093,76626,109015
3.42,342,8239,1,0,0,0,818.93921,888.74817,1584.16748,1715.31677,-0.02527,0.15857,0.98733,-0.753,0.21,-0.088,7093,76626,109015
3.43,343,8240,1,0,0,0,818.93921,888.74817,1584.47266,1716.15601,-0.02478,0.15967,0.98611,-0.543,0.14,-0.07,7094,76627,109013
3.44,344,8241,1,0,0,0,818.93921,888.74817,1583.9386,1715.39307,-0.02478,0.15967,0.98611,-0.543,0.14,-0.07,7094,76627,109013
3.45,345,8242,1,0,0,0,818.93921,888.74817,1584.16748,1715.39307,-0.02319,0.16224,0.98502,-0.77,0.21,-0.175,7092,76626,109007
3.46,346,8243,1,0,0,0,818.93921,888.74817,1584.01489,1715.39307,-0.026,0.16077,0.98489,-0.963,0.333,-0.053,7092,76626,109007
3.47,347,8244,1,0,0,0,818.93921,888.74817,1584.01489,1715.24048,-0.0271,0.15931,0.98685,-1.068,0.228,0.053,7095,76624,109012
3.48,348,8245,1,0,0,0,818.93921,888.82446,1584.09119,1715.24048,-0.026,0.15613,0.98514,-0.963,0.245,-0.07,7095,76624,109012
3.49,349,8246,1,0,0,0,818.93921,888.82446,1584.01489,1715.24048,-0.02673,0.15711,0.98587,-0.735,0.228,-0.21,7096,76625,109016
3.5,350,8247,1,0,0,0,818.93921,888.82446,1584.16748,1715.08789,-0.02283,0.16126,0.98453,-0.753,0.21,-0.088,7096,76625,109016
3.51,351,8248,1,0,0,0,818.93921,888.82446,1584.16748,1715.16418,-0.02319,0.16285,0.98733,-0.858,0.228,-0.228,7099,76626,109019
3.52,352,8249,1,0,0,0,818.93921,888.82446,1584.16748,1715.46936,-0.02454,0.16224,0.98856,-0.998,0.263,-0.018,7099,76626,109019
3.53,353,8250,1,0,0,0,818.93921,888.82446,1584.09119,1715.16418,-0.02637,0.16089,0.98709,-0.998,0.35,0.14,7099,76620,109015
3.54,354,8251,1,0,0,0,818.93921,888.82446,1583.9386,1714.85901,-0.02612,0.15967,0.98733,-1.138,0.263,-0.053,7099,76620,109015
3.55,355,8252,1,0,0,0,818.93921,888.82446,1584.09119,1714.9353,-0.0271,0.15577,0.9866,-0.945,0.298,0.158,7101,76625,109024
3.56,356,8253,1,0,0,0,818.93921,888.82446,1584.16748,1714.9353,-0.02661,0.15772,0.98538,-0.665,0.245,0.035,7101,76625,109024
3.57,357,8254,1,0,0,0,818.93921,888.82446,1584.24377,1714.9353,-0.02783,0.15882,0.98672,-0.315,0.245,-0.14,7104,76624,109018
3.58,358,8255,1,0,0,0,818.93921,888.67188,1584.32007,1715.16418,-0.026,0.15943,0.98282,-0.245,0.123,-0.14,7104,76624,109018
3.59,359,8256,1,0,0,0,818.93921,888.67188,1584.09119,1715.08789,-0.02405,0.16089,0.9855,-0.42,0.088,-0.105,7105,76624,109016
3.6,360,8257,1,0,0,0,818.93921,888.67188,1584.16748,1715.08789,-0.02112,0.15894,0.98489,-0.735,0.21,-0.018,7105,76624,109016
3.61,361,8258,1,0,0,0,818.93921,888.67188,1584.16748,1715.39307,-0.02185,0.15857,0.98648,-0.7,0.263,-0.333,7106,76622,109008
3.62,362,8259,1,0,0,0,818.93921,888.67188,1584.09119,1715.08789,-0.021,0.15857,0.98514,-0.805,0.21,-0.28,7106,76622,109008
3.63,363,8260,1,0,0,0,818.93921,888.67188,1584.16748,1714.9353,-0.02295,0.16041,0.98624,-0.718,0.333,-0.193,7103,76620,109003
3.64,364,8261,1,0,0,0,818.93921,888.67188,1583.8623,1715.31677,-0.0249,0.16065,0.98599,-0.665,0.263,-0.298,7103,76620,109003
3.65,365,8262,1,0,0,0,818.93921,888.67188,1584.09119,1715.08789,-0.02698,0.16126,0.98392,-0.63,0.333,-0.263,7101,76618,108998
3.66,366,8263,1,0,0,0,818.93921,888.67188,1584.09119,1715.08789,-0.02673,0.1615,0.98245,-0.875,0.35,-0.438,7101,76618,108998
3.67,367,8264,1,0,0,0,818.93921,888.67188,1584.01489,1715.24048,-0.02503,0.15931,0.98148,-0.98,0.35,-0.438,7099,76615,108989
3.68,368,8265,1,0,0,0,818.93921,888.59558,1584.24377,1715.08789,-0.026,0.15796,0.98489,-1.138,0.35,-0.315,7099,76615,108989
3.69,369,8266,1,0,0,0,818.93921,888.59558,1583.9386,1715.0116,-0.02698,0.15748,0.98624,-1.225,0.298,-0.298,7098,76614,108988
3.7,370,8267,1,0,0,0,818.93921,888.59558,1583.9386,1715.46936,-0.0271,0.15735,0.98941,-1.085,0.228,-0.403,7098,76614,108988
3.71,371,8268,1,0,0,0,818.93921,888.59558,1584.09119,1715.0116,-0.0271,0.15394,0.98868,-0.665,0.263,-0.473,7092,76610,108990
3.72,372,8269,1,0,0,0,818.93921,888.59558,1584.01489,1715.39307,-0.02869,0.15516,0.98868,-0.455,0.193,-0.49,7092,76610,108990
3.73,373,8270,1,0,0,0,818.86292,888.59558,1584.39636,1715.0116,-0.02551,0.15772,0.98636,-0.123,0.088,-0.385,7091,76608,108986
3.74,374,8271,1,0,0,0,818.86292,888.59558,1583.9386,1715.0116,-0.02454,0.16102,0.98514,0.158,0.158,-0.42,7091,76608,108986
3.75,375,8272,1,0,0,0,818.86292,888.59558,1584.24377,1715.39307,-0.02234,0.16309,0.98184,-0.07,0.175,-0.543,7085,76605,108977
3.76,376,8273,1,0,0,0,818.86292,888.59558,1584.16748,1715.31677,-0.02429,0.16236,0.98392,-0.7,0.263,-0.403,7085,76605,108977
3.77,377,8274,1,0,0,0,818.86292,888.59558,1584.24377,1715.0116,-0.02625,0.16077,0.98672,-0.7,0.228,-0.193,7083,76602,108976
3.78,378,8275,1,0,0,0,818.86292,888.82446,1584.24377,1715.08789,-0.02515,0.16065,0.9855,-0.683,0.228,-0.07,7083,76602,108976
3.79,379,8276,1,0,0,0,818.86292,888.82446,1584.16748,1715.16418,-0.02539,0.16077,0.9855,-0.63,0.228,-0.403,7083,76600,108970
3.8,380,8277,1,0,0,0,818.86292,888.82446,1584.16748,1715.0116,-0.02515,0.16004,0.98636,-0.735,0.175,-0.403,7083,76600,108970
3.81,381,8278,1,0,0,0,818.86292,888.82446,1584.24377,1715.16418,-0.02393,0.15882,0.98514,-0.788,0.14,-0.35,7078,76603,108965
3.82,382,8279,1,0,0,0,818.86292,888.82446,1584.16748,1715.39307,-0.02441,0.15821,0.98538,-0.7,0.14,-0.315,7078,76603,108965
3.83,383,8280,1,0,0,0,818.93921,888.82446,1584.24377,1715.16418,-0.02771,0.16041,0.98636,-0.665,0.298,-0.455,7079,76601,108963
3.84,384,8281,1,0,0,0,818.93921,888.82446,1583.9386,1715.0116,-0.02673,0.16102,0.98538,-0.613,0.385,-0.315,7079,76601,108963
3.85,385,8282,1,0,0,0,818.93921,888.82446,1584.16748,1715.16418,-0.0271,0.1626,0.98489,-0.473,0.368,-0.07,7077,76598,108961
3.86,386,8283,1,0,0,0,818.93921,888.82446,1584.09119,1715.0116,-0.02686,0.16419,0.98428,-0.805,0.245,-0.175,7077,76598,108961
3.87,387,8284,1,0,0,0,818.93921,888.82446,1584.16748,1715.08789,-0.02441,0.16199,0.98416,-0.788,0.263,-0.245,7075,76595,108957
3.88,388,8285,1,0,0,0,818.93921,888.82446,1584.39636,1715.16418,-0.02466,0.16016,0.98416,-0.823,0.298,-0.175,7075,76595,108957
3.89,389,8286,1,0,0,0,818.93921,888.82446,1584.09119,1715.08789,-0.02466,0.15955,0.98587,-0.858,0.21,-0.14,7071,76594,108951
3.9,390,8287,1,0,0,0,818.93921,888.82446,1584.16748,1715.16418,-0.02405,0.15979,0.98599,-0.858,0.105,-0.228,7071,76594,108951
3.91,391,8288,1,0,0,0,818.93921,888.82446,1584.09119,1715.77454,-0.02307,0.16016,0.98477,-0.63,0.14,-0.263,7073,76585,108945
3.92,392,8289,1,0,0,0,818.93921,888.82446,1584.09119,1715.08789,-0.02393,0.16053,0.98404,-0.805,0.28,-0.158,7073,76585,108945
3.93,393,8290,1,0,0,0,818.78662,888.82446,1584.16748,1714.85901,-0.02368,0.16175,0.98416,-0.84,0.245,-0.21,7074,76588,108945
3.94,394,8291,1,0,0,0,818.78662,888.82446,1583.8623,1715.62195,-0.02466,0.15992,0.98392,-0.98,0.245,-0.263,7074,76588,108945
3.95,395,8292,1,0,0,0,818.78662,888.82446,1584.09119,1715.16418,-0.02576,0.15967,0.98489,-1.155,0.333,-0.263,7071,76584,108946
3.96,396,8293,1,0,0,0,818.78662,888.82446,1584.16748,1715.0116,-0.02673,0.16114,0.98611,-1.033,0.228,-0.455,7071,76584,108946
3.97,397,8294,1,0,0,0,818.78662,888.82446,1584.16748,1715.31677,-0.026,0.16126,0.98538,-0.84,0.175,-0.158,7072,76584,108937
3.98,398,8295,1,0,0,0,818.78662,888.59558,1584.16748,1715.08789,-0.02417,0.16224,0.98416,-0.823,0.105,-0.21,7072,76584,108937
3.99,399,8296,1,0,0,0,818.78662,888.59558,1584.16748,1715.16418,-0.02527,0.1626,0.98392,-0.63,0.193,-0.07,7069,76580,108936
4.0,400,8297,1,0,0,0,818.78662,888.59558,1584.01489,1715.16418,-0.02441,0.16248,0.98318,-0.823,0.175,-0.035,7069,76580,108936
4.01,401,8298,1,0,0,0,818.78662,888.59558,1584.16748,1714.9353,-0.02515,0.16236,0.98404,-0.945,0.105,0.0,7071,76583,108940
4.02,402,8299,1,0,0,0,818.78662,888.59558,1584.16748,1714.9353,-0.02637,0.16004,0.98575,-1.173,0.263,0.193,7071,76583,108940
4.03,403,8300,1,0,0,0,818.86292,888.59558,1584.24377,1715.16418,-0.02527,0.16028,0.98758,-1.12,0.228,0.035,7069,76583,108939
4.04,404,8301,1,0,0,0,818.86292,888.59558,1583.8623,1715.0116,-0.02466,0.15979,0.9888,-1.12,0.175,0.07,7069,76583,108939
4.05,405,8302,1,0,0,0,818.86292,888.59558,1584.09119,1715.0116,-0.02466,0.15748,0.9866,-1.015,0.193,-0.018,7068,76581,108935
4.06,406,8303,1,0,0,0,818.86292,888.59558,1584.16748,1714.78271,-0.02527,0.15809,0.9855,-0.84,0.175,-0.053,7068,76581,108935
4.07,407,8304,1,0,0,0,818.86292,888.59558,1584.09119,1714.85901,-0.02515,0.16041,0.98502,-0.735,0.263,-0.14,7068,76581,108941
4.08,408,8305,1,0,0,0,818.86292,888.82446,1584.09119,1715.16418,-0.02454,0.16163,0.98441,-0.823,0.298,-0.123,7068,76581,108941
4.09,409,8306,1,0,0,0,818.86292,888.82446,1584.16748,1715.16418,-0.026,0.16126,0.98404,-0.858,0.298,-0.158,7071,76580,108940
4.1,410,8307,1,0,0,0,818.86292,888.82446,1584.24377,1715.0116,-0.02588,0.16126,0.98599,-0.893,0.315,-0.123,7071,76580,108940
4.11,411,8308,1,0,0,0,818.86292,888.82446,1584.32007,1715.0116,-0.02564,0.16004,0.98587,-0.963,0.21,-0.088,7071,76579,108937
4.12,412,8309,1,0,0,0,818.86292,888.82446,1584.16748,1715.16418,-0.02551,0.16102,0.98843,-0.91,0.368,-0.088,7071,76579,108937
4.13,413,8310,1,0,0,0,818.93921,888.82446,1584.24377,1715.16418,-0.02576,0.15943,0.98672,-1.05,0.298,-0.105,7072,76578,108936
4.14,414,8311,1,0,0,0,818.93921,888.82446,1583.9386,1715.08789,-0.02588,0.15882,0.98697,-0.893,0.298,0.018,7072,76578,108936
4.15,415,8312,1,0,0,0,818.93921,888.82446,1584.24377,1715.39307,-0.0238,0.15857,0.98379,-0.823,0.193,0.07,7071,76574,108938
4.16,416,8313,1,0,0,0,818.93921,888.82446,1584.09119,1715.16418,-0.02405,0.16065,0.98477,-0.805,0.28,-0.053,7071,76574,108938
4.17,417,8314,1,0,0,0,818.93921,888.82446,1584.24377,1715.31677,-0.02441,0.16126,0.9855,-0.77,0.245,-0.123,7072,76580,108942
4.18,418,8315,1,0,0,0,818.93921,888.74817,1584.24377,1715.16418,-0.02539,0.15992,0.98685,-1.05,0.385,-0.158,7072,76580,108942
4.19,419,8316,1,0,0,0,818.93921,888.74817,1583.8623,1715.08789,-0.02588,0.15784,0.98563,-1.033,0.193,-0.053,7074,76581,108943
4.2,420,8317,1,0,0,0,818.93921,888.74817,1583.9386,1715.16418,-0.02637,0.16041,0.98685,-0.77,0.123,-0.175,7074,76581,108943
4.21,421,8318,1,0,0,0,818.93921,888.74817,1584.01489,1715.31677,-0.02539,0.16053,0.98428,-0.578,0.333,-0.035,7075,76576,108940
4.22,422,8319,1,0,0,0,818.93921,888.74817,1584.01489,1715.16418,-0.02686,0.16114,0.9866,-0.753,0.28,0.018,7075,76576,108940
4.23,423,8320,1,0,0,0,818.86292,888.74817,1584.16748,1715.16418,-0.0282,0.16224,0.9877,-0.805,0.21,-0.07,7076,76578,108947
4.24,424,8321,1,0,0,0,818.86292,888.74817,1583.78601,1715.62195,-0.02588,0.16089,0.98636,-0.788,0.105,-0.07,7076,76578,108947
4.25,425,8322,1,0,0,0,818.86292,888.74817,1584.01489,1715.16418,-0.02515,0.15979,0.98465,-0.875,0.175,0.088,7075,76580,108951
4.26,426,8323,1,0,0,0,818.86292,888.74817,1584.09119,1715.39307,-0.02441,0.16041,0.98611,-0.77,0.21,-0.035,7075,76580,108951
4.27,427,8324,1,0,0,0,818.86292,888.74817,1584.16748,1715.31677,-0.0238,0.16028,0.9866,-0.77,0.158,-0.158,7079,76581,108951
4.28,428,8325,1,0,0,0,818.86292,888.74817,1584.16748,1715.31677,-0.02332,0.15857,0.98538,-0.735,0.228,-0.14,7079,76581,108951
4.29,429,8326,1,0,0,0,818.86292,888.74817,1584.09119,1715.31677,-0.02527,0.15967,0.98514,-0.63,0.158,-0.018,7081,76579,108950
4.3,430,8327,1,0,0,0,818.86292,888.74817,1584.09119,1715.24048,-0.02515,0.15979,0.98648,-0.7,0.228,-0.175,7081,76579,108950
4.31,431,8328,1,0,0,0,818.86292,888.74817,1584.09119,1715.08789,-0.02698,0.15931,0.98721,-0.805,0.245,-0.228,7081,76576,108950
4.32,432,8329,1,0,0,0,818.86292,888.74817,1584.09119,1715.16418,-0.02551,0.16053,0.98477,-0.875,0.245,0.0,7081,76576,108950
4.33,433,8330,1,0,0,0,818.78662,888.74817,1583.9386,1715.92712,-0.02478,0.15931,0.98257,-0.7,0.21,0.018,7081,76577,108944
4.34,434,8331,1,0,0,0,818.78662,888.74817,1583.9386,1715.39307,-0.02576,0.16041,0.98575,-0.648,0.228,-0.14,7081,76577,108944
4.35,435,8332,1,0,0,0,818.78662,888.74817,1584.47266,1715.46936,-0.02454,0.16126,0.98526,-0.753,0.263,-0.123,7085,76581,108948
4.36,436,8333,1,0,0,0,818.78662,888.74817,1584.09119,1715.31677,-0.02637,0.16236,0.98587,-0.788,0.193,0.035,7085,76581,108948
4.37,437,8334,1,0,0,0,818.78662,888.74817,1584.09119,1715.0116,-0.02527,0.1615,0.98453,-0.928,0.28,0.0,7088,76582,108949
4.38,438,8335,1,0,0,0,818.78662,888.74817,1584.24377,1715.08789,-0.0238,0.15967,0.98282,-0.893,0.298,-0.088,7088,76582,108949
4.39,439,8336,1,0,0,0,818.78662,888.74817,1584.09119,1715.39307,-0.02454,0.16077,0.98575,-0.683,0.298,-0.018,7089,76584,108950
4.4,440,8337,1,0,0,0,818.78662,888.74817,1584.01489,1715.08789,-0.02466,0.16138,0.98526,-0.805,0.315,-0.018,7089,76584,108950
4.41,441,8338,1,0,0,0,818.78662,888.74817,1584.09119,1715.08789,-0.02527,0.16065,0.98795,-1.015,0.21,-0.123,7091,76580,108952
4.42,442,8339,1,0,0,0,818.78662,888.74817,1584.09119,1715.24048,-0.02503,0.16114,0.98648,-1.033,0.21,-0.193,7091,76580,108952
4.43,443,8340,1,0,0,0,818.78662,888.74817,1584.01489,1714.9353,-0.02478,0.16102,0.98477,-1.068,0.28,0.018,7090,76578,108954
4.44,444,8341,1,0,0,0,818.78662,888.74817,1583.78601,1715.08789,-0.02454,0.16065,0.98514,-1.173,0.28,-0.088,7090,76578,108954
4.45,445,8342,1,0,0,0,818.78662,888.74817,1584.01489,1715.31677,-0.02564,0.16077,0.98526,-1.208,0.385,0.0,7095,76580,108952
4.46,446,8343,1,0,0,0,818.78662,888.74817,1584.01489,1715.31677,-0.02625,0.16041,0.98697,-1.26,0.385,0.14,7095,76580,108952
4.47,447,8344,1,0,0,0,818.78662,888.74817,1584.09119,1715.46936,-0.02698,0.16089,0.9866,-1.05,0.28,0.175,7101,76584,108958
4.48,448,8345,1,0,0,0,818.78662,888.67188,1584.32007,1715.0116,-0.02393,0.16089,0.98196,-0.753,0.07,0.263,7101,76584,108958
4.49,449,8346,1,0,0,0,818.78662,888.67188,1583.9386,1715.0116,-0.02271,0.16126,0.98184,-0.928,0.14,0.088,7099,76584,108957
4.5,450,8347,1,0,0,0,818.78662,888.67188,1584.01489,1715.0116,-0.02478,0.16004,0.98526,-1.278,0.105,0.263,7099,76584,108957
4.51,451,8348,1,0,0,0,818.78662,888.67188,1584.01489,1715.39307,-0.0249,0.16016,0.98892,-1.383,0.245,0.228,7101,76586,108962
4.52,452,8349,1,0,0,0,818.78662,888.67188,1584.01489,1714.9353,-0.02734,0.15796,0.98941,-1.348,0.245,0.175,7101,76586,108962
4.53,453,8350,1,0,0,0,818.86292,888.67188,1584.16748,1714.9353,-0.02515,0.15845,0.9855,-0.77,0.158,0.123,7102,76585,108962
4.54,454,8351,1,0,0,0,818.86292,888.67188,1583.78601,1715.08789,-0.02393,0.15857,0.98233,-0.823,0.158,0.088,7102,76585,108962
4.55,455,8352,1,0,0,0,818.86292,888.67188,1584.01489,1714.85901,-0.02466,0.15967,0.98184,-0.998,0.21,0.228,7105,76583,108959
4.56,456,8353,1,0,0,0,818.86292,888.67188,1584.09119,1715.54565,-0.02527,0.16089,0.98294,-1.068,0.333,0.053,7105,76583,108959
4.57,457,8354,1,0,0,0,818.86292,888.67188,1584.16748,1716.00342,-0.02515,0.1626,0.98807,-1.12,0.158,0.21,7106,76584,108962
4.58,458,8355,1,0,0,0,818.86292,888.90076,1584.01489,1714.9353,-0.02503,0.16175,0.98636,-1.348,0.263,0.28,7106,76584,108962
4.59,459,8356,1,0,0,0,818.86292,888.90076,1584.01489,1714.70642,-0.026,0.15772,0.98453,-1.575,0.368,0.245,7108,76585,108967
4.6,460,8357,1,0,0,0,818.86292,888.90076,1583.9386,1715.16418,-0.02698,0.15455,0.98453,-1.803,0.403,0.053,7108,76585,108967
4.61,461,8358,1,0,0,0,818.86292,888.90076,1584.01489,1714.78271,-0.02783,0.15479,0.9866,-1.47,0.298,0.158,7108,76585,108967
4.62,462,8359,1,0,0,0,818.86292,888.90076,1584.01489,1714.9353,-0.02686,0.15711,0.98587,-1.015,0.158,0.315,7108,76588,108969
4.63,463,8360,1,0,0,0,818.78662,888.90076,1584.16748,1715.16418,-0.02661,0.15979,0.98575,-0.718,0.07,0.228,7111,76586,108973
4.64,464,8361,1,0,0,0,818.78662,888.90076,1583.9386,1715.16418,-0.026,0.16041,0.98514,-0.875,0.14,0.088,7111,76586,108973
4.65,465,8362,1,0,0,0,818.78662,888.90076,1584.09119,1714.9353,-0.02222,0.15748,0.98599,-1.085,0.228,0.0,7111,76586,108973
4.66,466,8363,1,0,0,0,818.78662,888.90076,1584.01489,1714.78271,-0.02283,0.15552,0.98672,-1.243,0.245,0.0,7110,76586,108963
4.67,467,8364,1,0,0,0,818.78662,888.90076,1584.01489,1714.78271,-0.02246,0.15479,0.98538,-1.155,0.385,-0.053,7110,76586,108963
4.68,468,8365,1,0,0,0,818.78662,888.51929,1584.01489,1714.70642,-0.02319,0.15577,0.98636,-0.963,0.228,0.07,7111,76582,108953
4.69,469,8366,1,0,0,0,818.78662,888.51929,1583.63342,1715.31677,-0.02356,0.15833,0.98819,-0.7,0.105,-0.035,7111,76582,108953
4.7,470,8367,1,0,0,0,818.78662,888.51929,1584.01489,1714.78271,-0.02527,0.16004,0.98416,-0.403,0.175,0.018,7112,76584,108962
4.71,471,8368,1,0,0,0,818.78662,888.51929,1583.9386,1714.78271,-0.02734,0.15992,0.98563,-0.578,0.315,-0.035,7112,76584,108962
4.72,472,8369,1,0,0,0,818.78662,888.51929,1583.9386,1715.16418,-0.026,0.15894,0.98563,-0.385,0.263,-0.035,7109,76584,108955
4.73,473,8370,1,0,0,0,818.71033,888.51929,1584.09119,1715.08789,-0.02734,0.15979,0.98599,-0.438,0.245,-0.158,7107,76582,108953
4.74,474,8371,1,0,0,0,818.71033,888.51929,1583.70972,1715.08789,-0.0271,0.15906,0.98441,-0.385,0.298,-0.053,7107,76582,108953
4.75,475,8372,1,0,0,0,818.71033,888.51929,1583.8623,1715.16418,-0.02503,0.15882,0.98599,-0.35,0.21,-0.088,7107,76582,108953
4.76,476,8373,1,0,0,0,818.71033,888.51929,1583.9386,1714.9353,-0.0249,0.15967,0.98538,-0.525,0.158,-0.14,7104,76581,108951
4.77,477,8374,1,0,0,0,818.71033,888.51929,1583.9386,1715.0116,-0.02527,0.16053,0.98636,-0.613,0.21,-0.053,7104,76581,108951
4.78,478,8375,1,0,0,0,818.71033,888.74817,1584.24377,1715.16418,-0.02417,0.15943,0.98489,-0.543,0.21,-0.298,7104,76575,108949
4.79,479,8376,1,0,0,0,818.71033,888.74817,1583.70972,1715.0116,-0.02576,0.16065,0.98453,-0.613,0.263,-0.228,7104,76575,108949
4.8,480,8377,1,0,0,0,818.71033,888.74817,1584.01489,1715.08789,-0.02478,0.16211,0.98502,-0.875,0.333,-0.263,7100,76576,108943
4.81,481,8378,1,0,0,0,818.71033,888.74817,1583.9386,1715.54565,-0.02539,0.16041,0.98575,-1.225,0.28,-0.228,7100,76576,108943
4.82,482,8379,1,0,0,0,818.71033,888.74817,1584.09119,1715.08789,-0.02576,0.15796,0.98697,-1.313,0.368,-0.298,7099,76572,108943
4.83,483,8380,1,0,0,0,818.86292,888.74817,1584.16748,1715.08789,-0.026,0.15723,0.98685,-1.225,0.35,-0.403,7097,76568,108937
4.84,484,8381,1,0,0,0,818.86292,888.74817,1583.8623,1715.16418,-0.026,0.15687,0.9866,-0.928,0.228,-0.35,7097,76568,108937
4.85,485,8382,1,0,0,0,818.86292,888.74817,1584.09119,1714.9353,-0.0249,0.15955,0.98477,-0.63,0.28,-0.28,7097,76568,108937
4.86,486,8383,1,0,0,0,818.86292,888.74817,1584.16748,1715.16418,-0.02527,0.16211,0.98685,-0.805,0.228,-0.175,7095,76564,108929
4.87,487,8384,1,0,0,0,818.86292,888.74817,1584.09119,1715.08789,-0.02405,0.16053,0.98538,-0.788,0.228,-0.28,7095,76564,108929
4.88,488,8385,1,0,0,0,818.86292,888.67188,1584.09119,1715.0116,-0.02588,0.15943,0.98746,-0.963,0.21,-0.193,7091,76567,108929
4.89,489,8386,1,0,0,0,818.86292,888.67188,1583.9386,1714.9353,-0.02612,0.15931,0.9855,-0.963,0.263,-0.158,7091,76567,108929
4.9,490,8387,1,0,0,0,818.86292,888.67188,1584.16748,1715.08789,-0.02649,0.16041,0.98599,-0.753,0.263,-0.228,7090,76565,108930
4.91,491,8388,1,0,0,0,818.86292,888.67188,1584.09119,1715.0116,-0.02576,0.16138,0.98624,-0.368,0.193,-0.175,7090,76565,108930
4.92,492,8389,1,0,0,0,818.86292,888.67188,1584.01489,1715.0116,-0.02503,0.1626,0.98282,-0.508,0.263,-0.228,7089,76567,108928
4.93,493,8390,1,0,0,0,818.86292,888.67188,1584.32007,1715.08789,-0.02625,0.16077,0.98428,-0.77,0.315,-0.193,7089,76566,108929
4.94,494,8391,1,0,0,0,818.86292,888.67188,1583.78601,1714.9353,-0.0238,0.15931,0.98343,-0.998,0.35,-0.228,7089,76566,108929
4.95,495,8392,1,0,0,0,818.86292,888.67188,1584.01489,1715.0116,-0.0249,0.16053,0.9866,-1.068,0.175,-0.158,7089,76566,108929
4.96,496,8393,1,0,0,0,818.86292,888.67188,1584.09119,1715.31677,-0.02527,0.16065,0.98721,-0.98,0.315,-0.315,7093,76561,108922
4.97,497,8394,1,0,0,0,818.86292,888.67188,1584.01489,1715.0116,-0.02332,0.15955,0.98489,-1.05,0.263,-0.14,7093,76561,108922
4.98,498,8395,1,0,0,0,818.86292,888.67188,1584.09119,1714.78271,-0.02429,0.16077,0.98831,-1.155,0.298,-0.053,7089,76559,108918
4.99,499,8396,1,0,0,0,818.86292,888.67188,1583.70972,1715.16418,-0.02576,0.16187,0.98721,-1.068,0.28,-0.035,7089,76559,108918
5.0,500,8397,1,0,0,0,818.86292,888.67188,1583.9386,1715.08789,-0.02576,0.16187,0.98441,-0.893,0.263,-0.14,7088,76555,108913
5.01,501,8398,1,0,0,0,818.86292,888.67188,1584.01489,1715.31677,-0.02527,0.16077,0.98404,-1.138,0.14,0.0,7088,76555,108913
5.02,502,8399,1,0,0,0,818.86292,888.67188,1583.9386,1715.92712,-0.02612,0.16028,0.98502,-1.26,0.245,0.053,7090,76553,108911
5.03,503,8400,1,0,0,0,818.78662,888.67188,1584.09119,1714.78271,-0.02795,0.15979,0.98672,-1.085,0.158,0.333,7090,76553,108911
5.04,504,8401,1,0,0,0,818.78662,888.67188,1584.01489,1714.78271,-0.02527,0.16028,0.98599,-0.875,0.105,0.228,7087,76555,108915
5.05,505,8402,1,0,0,0,818.78662,888.67188,1584.01489,1714.78271,-0.02393,0.16077,0.98453,-0.858,0.07,0.193,7087,76555,108915
5.06,506,8403,1,0,0,0,818.78662,888.67188,1584.01489,1714.85901,-0.02527,0.15918,0.98575,-0.858,0.175,0.123,7088,76558,108915
5.07,507,8404,1,0,0,0,818.78662,888.67188,1584.01489,1714.70642,-0.02588,0.15857,0.9866,-1.208,0.263,-0.018,7088,76558,108915
5.08,508,8405,1,0,0,0,818.78662,888.74817,1584.16748,1715.08789,-0.02503,0.15687,0.98526,-1.068,0.193,0.21,7089,76556,108916
5.09,509,8406,1,0,0,0,818.78662,888.74817,1583.78601,1714.9353,-0.02637,0.15796,0.98538,-0.98,0.298,0.07,7089,76556,108916
5.1,510,8407,1,0,0,0,818.78662,888.74817,1584.09119,1714.78271,-0.026,0.15809,0.98526,-0.84,0.315,0.018,7091,76555,108912
5.11,511,8408,1,0,0,0,818.78662,888.74817,1583.9386,1715.0116,-0.0271,0.15845,0.98807,-0.928,0.21,0.0,7091,76555,108912
5.12,512,8409,1,0,0,0,818.78662,888.74817,1584.01489,1714.78271,-0.02734,0.15906,0.98526,-0.595,0.158,0.053,7091,76553,108918
5.13,513,8410,1,0,0,0,818.86292,888.74817,1583.78601,1715.0116,-0.02393,0.15918,0.98196,-0.56,0.035,0.123,7091,76553,108918
5.14,514,8411,1,0,0,0,818.86292,888.74817,1583.9386,1715.08789,-0.02441,0.1626,0.98453,-0.56,0.158,0.018,7088,76553,108915
5.15,515,8412,1,0,0,0,818.86292,888.74817,1584.01489,1714.9353,-0.0238,0.16272,0.98245,-0.665,0.21,-0.035,7088,76553,108915
5.16,516,8413,1,0,0,0,818.86292,888.74817,1584.09119,1714.85901,-0.02515,0.16211,0.98575,-0.928,0.21,0.053,7091,76555,108914
5.17,517,8414,1,0,0,0,818.86292,888.74817,1584.01489,1715.0116,-0.02625,0.15809,0.98843,-1.278,0.28,0.035,7091,76555,108914
5.18,518,8415,1,0,0,0,818.86292,888.59558,1584.01489,1714.85901,-0.02454,0.15699,0.98672,-1.015,0.21,0.0,7091,76556,108918
5.19,519,8416,1,0,0,0,818.86292,888.59558,1583.8623,1714.78271,-0.02539,0.15931,0.9877,-0.823,0.158,0.018,7091,76556,108918
5.2,520,8417,1,0,0,0,818.86292,888.59558,1583.9386,1714.9353,-0.02429,0.15906,0.98575,-0.56,0.193,0.123,7095,76556,108920
5.21,521,8418,1,0,0,0,818.86292,888.59558,1584.01489,1714.85901,-0.02466,0.15784,0.98514,-0.368,0.088,0.21,7095,76556,108920
5.22,522,8419,1,0,0,0,818.86292,888.59558,1584.01489,1714.85901,-0.02722,0.15833,0.98746,-0.578,0.193,-0.035,7095,76556,108919
5.23,523,8420,1,0,0,0,818.71033,888.59558,1584.16748,1715.0116,-0.02747,0.15931,0.9866,-0.578,0.14,0.088,7095,76556,108919
5.24,524,8421,1,0,0,0,818.71033,888.59558,1583.9386,1715.0116,-0.02588,0.1587,0.98392,-0.525,0.14,-0.018,7096,76555,108923
5.25,525,8422,1,0,0,0,818.71033,888.59558,1584.01489,1715.16418,-0.02612,0.15979,0.98428,-0.543,0.193,-0.105,7096,76555,108923
5.26,526,8423,1,0,0,0,818.71033,888.59558,1583.8623,1715.08789,-0.02441,0.15955,0.98343,-0.56,0.245,-0.158,7099,76556,108922
5.27,527,8424,1,0,0,0,818.71033,888.59558,1583.9386,1715.16418,-0.02478,0.16126,0.9855,-0.893,0.385,-0.158,7099,76556,108922
5.28,528,8425,1,0,0,0,818.71033,888.67188,1584.09119,1714.85901,-0.02588,0.16114,0.98648,-0.928,0.21,-0.158,7100,76548,108919
5.29,529,8426,1,0,0,0,818.71033,888.67188,1583.63342,1715.31677,-0.02588,0.1615,0.98636,-0.963,0.21,0.053,7100,76548,108919
5.3,530,8427,1,0,0,0,818.71033,888.67188,1583.8623,1714.85901,-0.02417,0.16065,0.98636,-0.805,0.158,0.018,7101,76553,108925
5.31,531,8428,1,0,0,0,818.71033,888.67188,1583.8623,1714.85901,-0.02197,0.15931,0.98502,-0.875,0.193,-0.07,7101,76553,108925
5.32,532,8429,1,0,0,0,818.71033,888.67188,1584.01489,1714.9353,-0.02466,0.16126,0.98807,-0.84,0.263,-0.123,7103,76555,108932
5.33,533,8430,1,0,0,0,818.86292,888.67188,1584.01489,1714.9353,-0.02466,0.16053,0.98563,-0.805,0.245,-0.088,7103,76555,108932
5.34,534,8431,1,0,0,0,818.86292,888.67188,1584.01489,1714.85901,-0.02405,0.16004,0.98367,-0.823,0.158,-0.07,7102,76559,108935
5.35,535,8432,1,0,0,0,818.86292,888.67188,1584.01489,1715.24048,-0.02441,0.16016,0.98587,-0.718,0.21,-0.018,7102,76559,108935
5.36,536,8433,1,0,0,0,818.86292,888.67188,1584.09119,1715.0116,-0.02527,0.15967,0.98331,-0.7,0.158,-0.053,7106,76557,108936
5.37,537,8434,1,0,0,0,818.86292,888.67188,1584.16748,1714.9353,-0.02539,0.15784,0.98599,-0.893,0.175,-0.018,7106,76557,108936
5.38,538,8435,1,0,0,0,818.86292,888.82446,1584.24377,1715.0116,-0.02795,0.15796,0.9888,-0.7,0.088,-0.088,7107,76556,108936
5.39,539,8436,1,0,0,0,818.86292,888.82446,1583.8623,1715.54565,-0.02625,0.15857,0.98611,-0.648,0.088,-0.14,7107,76556,108936
5.4,540,8437,1,0,0,0,818.86292,888.82446,1584.09119,1714.85901,-0.02649,0.15967,0.98453,-0.543,0.193,-0.088,7112,76564,108940
5.41,541,8438,1,0,0,0,818.86292,888.82446,1584.09119,1714.78271,-0.02637,0.16089,0.98563,-0.578,0.21,-0.07,7112,76564,108940
5.42,542,8439,1,0,0,0,818.86292,888.82446,1584.09119,1714.85901,-0.02503,0.16089,0.98392,-0.735,0.193,-0.228,7111,76567,108945
5.43,543,8440,1,0,0,0,818.86292,888.82446,1584.01489,1715.0116,-0.02686,0.16004,0.98489,-0.823,0.175,-0.175,7111,76567,108945
5.44,544,8441,1,0,0,0,818.86292,888.82446,1583.9386,1715.08789,-0.02454,0.15955,0.98636,-0.665,0.053,-0.035,7113,76566,108944
5.45,545,8442,1,0,0,0,818.86292,888.82446,1583.9386,1715.0116,-0.02466,0.16004,0.98758,-0.77,0.14,-0.175,7113,76566,108944
5.46,546,8443,1,0,0,0,818.86292,888.82446,1584.01489,1714.85901,-0.02344,0.15882,0.98795,-0.648,0.175,-0.053,7117,76568,108949
5.47,547,8444,1,0,0,0,818.86292,888.82446,1583.9386,1715.08789,-0.02356,0.15882,0.98526,-0.613,0.21,-0.175,7117,76568,108949
5.48,548,8445,1,0,0,0,818.86292,888.67188,1584.01489,1714.63013,-0.02441,0.15967,0.98331,-0.438,0.263,-0.21,7118,76568,108951
5.49,549,8446,1,0,0,0,818.86292,888.67188,1583.78601,1714.78271,-0.02319,0.16028,0.98282,-0.455,0.21,-0.193,7118,76568,108951
5.5,550,8447,1,0,0,0,818.86292,888.67188,1583.9386,1715.08789,-0.02405,0.16004,0.98441,-0.56,0.21,-0.14,7121,76566,108953
5.51,551,8448,1,0,0,0,818.86292,888.67188,1583.9386,1715.0116,-0.02588,0.15882,0.98904,-0.35,0.158,-0.263,7121,76566,108953
5.52,552,8449,1,0,0,0,818.86292,888.67188,1584.09119,1715.0116,-0.02673,0.15845,0.98929,-0.053,0.053,-0.123,7124,76572,108961
5.53,553,8450,1,0,0,0,818.86292,888.67188,1584.32007,1714.78271,-0.02466,0.16663,0.98209,-0.263,0.175,-0.158,7124,76572,108961
5.54,554,8451,1,0,0,0,818.86292,888.67188,1583.8623,1715.0116,-0.02466,0.16431,0.98282,-0.788,0.28,-0.42,7126,76574,108963
5.55,555,8452,1,0,0,0,818.86292,888.67188,1584.01489,1715.31677,-0.02637,0.15967,0.98477,-1.103,0.263,-0.298,7126,76574,108963
5.56,556,8453,1,0,0,0,818.86292,888.67188,1583.9386,1715.31677,-0.026,0.15943,0.98575,-0.998,0.158,-0.21,7130,76569,108964
5.57,557,8454,1,0,0,0,818.86292,888.67188,1584.01489,1714.85901,-0.02527,0.16053,0.9866,-0.91,0.263,-0.28,7130,76569,108964
5.58,558,8455,1,0,0,0,818.86292,888.59558,1583.9386,1714.85901,-0.026,0.16028,0.98514,-0.35,0.175,-0.35,7128,76575,108964
5.59,559,8456,1,0,0,0,818.86292,888.59558,1583.63342,1715.85083,-0.02441,0.16028,0.98367,-0.613,0.28,-0.298,7128,76575,108964
5.6,560,8457,1,0,0,0,818.86292,888.59558,1583.9386,1714.70642,-0.02466,0.16297,0.98465,-0.63,0.193,-0.193,7132,76574,108967
5.61,561,8458,1,0,0,0,818.86292,888.59558,1583.9386,1714.70642,-0.02258,0.16309,0.98502,-0.595,0.14,-0.14,7132,76574,108967
5.62,562,8459,1,0,0,0,818.86292,888.59558,1583.9386,1714.78271,-0.02332,0.16639,0.98489,-0.683,0.193,-0.158,7133,76575,108971
5.63,563,8460,1,0,0,0,818.86292,888.59558,1583.9386,1714.85901,-0.02161,0.16443,0.98465,-1.068,0.28,-0.053,7133,76575,108971
5.64,564,8461,1,0,0,0,818.86292,888.59558,1583.9386,1714.70642,-0.02686,0.15906,0.98489,-1.418,0.368,0.018,7136,76575,108974
5.65,565,8462,1,0,0,0,818.86292,888.59558,1583.8623,1715.16418,-0.02698,0.15601,0.98453,-1.383,0.333,0.193,7136,76575,108974
5.66,566,8463,1,0,0,0,818.86292,888.59558,1583.8623,1714.70642,-0.02857,0.15687,0.98575,-1.365,0.263,0.175,7137,76578,108977
5.67,567,8464,1,0,0,0,818.86292,888.59558,1583.8623,1714.70642,-0.02783,0.15906,0.98721,-0.928,0.228,0.0,7137,76578,108977
5.68,568,8465,1,0,0,0,818.86292,888.51929,1584.16748,1715.0116,-0.02576,0.16077,0.98379,-0.368,0.228,0.018,7140,76579,108977
5.69,569,8466,1,0,0,0,818.86292,888.51929,1583.70972,1714.63013,-0.02454,0.16126,0.98514,-0.368,0.14,-0.018,7140,76579,108977
5.7,570,8467,1,0,0,0,818.86292,888.51929,1584.09119,1714.78271,-0.02368,0.15955,0.98465,-0.56,0.158,-0.21,7141,76575,108975
5.71,571,8468,1,0,0,0,818.86292,888.51929,1583.9386,1714.85901,-0.02234,0.15845,0.98489,-0.56,0.088,-0.35,7141,76575,108975
5.72,572,8469,1,0,0,0,818.86292,888.51929,1583.9386,1714.70642,-0.02124,0.16028,0.98465,-0.42,0.14,-0.158,7141,76576,108972
5.73,573,8470,1,0,0,0,818.78662,888.51929,1584.01489,1714.70642,-0.02332,0.16297,0.98611,-0.245,0.14,-0.263,7141,76576,108972
5.74,574,8471,1,0,0,0,818.78662,888.51929,1583.78601,1714.85901,-0.02344,0.16346,0.9855,-0.298,0.28,-0.368,7140,76578,108971
5.75,575,8472,1,0,0,0,818.78662,888.51929,1583.9386,1714.78271,-0.02637,0.16419,0.98648,-0.49,0.385,-0.228,7140,76578,108971
5.76,576,8473,1,0,0,0,818.78662,888.51929,1583.9386,1714.70642,-0.02612,0.16334,0.98379,-0.613,0.333,-0.175,7139,76577,108971
5.77,577,8474,1,0,0,0,818.78662,888.51929,1583.78601,1715.24048,-0.02576,0.1637,0.98331,-0.56,0.245,-0.263,7139,76577,108971
5.78,578,8475,1,0,0,0,818.78662,888.3667,1583.9386,1714.55383,-0.02759,0.16041,0.98379,-0.578,0.175,-0.105,7141,76576,108968
5.79,579,8476,1,0,0,0,818.78662,888.3667,1583.63342,1714.55383,-0.02759,0.16041,0.98831,-0.945,0.228,-0.105,7141,76576,108968
5.8,580,8477,1,0,0,0,818.78662,888.3667,1583.70972,1715.39307,-0.02759,0.15687,0.98733,-0.665,0.28,-0.175,7138,76579,108971
5.81,581,8478,1,0,0,0,818.78662,888.3667,1583.78601,1714.55383,-0.0282,0.15943,0.9888,-0.263,0.298,-0.228,7138,76579,108971
5.82,582,8479,1,0,0,0,818.78662,888.3667,1583.70972,1714.55383,-0.0249,0.16199,0.98441,0.0,0.175,-0.175,7136,76573,108964
5.83,583,8480,1,0,0,0,818.78662,888.3667,1583.78601,1717.07153,-0.02551,0.16492,0.98306,0.035,0.193,-0.543,7136,76573,108964
5.84,584,8481,1,0,0,0,818.78662,888.3667,1583.70972,1714.47754,-0.02429,0.16492,0.98111,-0.175,0.193,-0.543,7132,76570,108966
5.85,585,8482,1,0,0,0,818.78662,888.3667,1584.01489,1714.9353,-0.02441,0.16456,0.98465,-0.823,0.333,-0.385,7132,76570,108966
5.86,586,8483,1,0,0,0,818.78662,888.3667,1583.78601,1714.85901,-0.02588,0.16321,0.98587,-0.77,0.368,-0.385,7131,76573,108963
5.87,587,8484,1,0,0,0,818.78662,888.3667,1583.8623,1714.55383,-0.02429,0.16126,0.98575,-0.928,0.315,-0.578,7131,76573,108963
5.88,588,8485,1,0,0,0,818.78662,888.59558,1583.9386,1714.70642,-0.02441,0.16138,0.98611,-0.875,0.228,-0.543,7132,76572,108959
5.89,589,8486,1,0,0,0,818.78662,888.59558,1583.70972,1714.9353,-0.02246,0.16004,0.98367,-0.805,0.263,-0.245,7132,76572,108959
5.9,590,8487,1,0,0,0,818.78662,888.59558,1583.8623,1714.78271,-0.02258,0.16395,0.98453,-0.525,0.245,-0.315,7131,76569,108954
5.91,591,8488,1,0,0,0,818.78662,888.59558,1584.16748,1714.78271,-0.02173,0.16541,0.98477,-0.315,0.245,-0.193,7131,76569,108954
5.92,592,8489,1,0,0,0,818.78662,888.59558,1584.01489,1714.85901,-0.02466,0.16517,0.98636,-0.473,0.245,-0.21,7127,76567,108953
5.93,593,8490,1,0,0,0,818.78662,888.59558,1584.01489,1714.9353,-0.02661,0.16272,0.98514,-0.998,0.333,-0.28,7127,76567,108953
5.94,594,8491,1,0,0,0,818.78662,888.59558,1584.01489,1714.63013,-0.02759,0.16175,0.98465,-1.173,0.455,-0.368,7126,76568,108953
5.95,595,8492,1,0,0,0,818.78662,888.59558,1584.01489,1715.16418,-0.02588,0.16297,0.98587,-0.613,0.228,-0.158,7126,76568,108953
5.96,596,8493,1,0,0,0,818.78662,888.59558,1584.01489,1714.78271,-0.02466,0.16419,0.98575,-0.438,0.228,-0.228,7126,76572,108956
5.97,597,8494,1,0,0,0,818.78662,888.59558,1584.01489,1714.70642,-0.026,0.16224,0.98306,-0.455,0.263,-0.123,7126,76572,108956
5.98,598,8495,1,0,0,0,818.78662,888.67188,1584.09119,1714.78271,-0.02673,0.16358,0.98563,-0.613,0.193,0.0,7126,76567,108955
5.99,599,8496,1,0,0,0,818.78662,888.67188,1583.78601,1714.70642,-0.02527,0.16224,0.98404,-0.578,0.175,-0.158,7126,76567,108955
6.0,600,8497,1,0,0,0,818.78662,888.67188,1584.01489,1714.70642,-0.02258,0.16431,0.98257,-0.735,0.21,-0.053,7126,76563,108950
6.01,601,8498,1,0,0,0,818.78662,888.67188,1583.9386,1714.85901,-0.02271,0.16309,0.98465,-0.928,0.228,-0.105,7126,76563,108950
6.02,602,8499,1,0,0,0,818.78662,888.67188,1583.9386,1714.70642,-0.0221,0.16346,0.98331,-0.963,0.263,-0.07,7125,76568,108951
6.03,603,8500,1,0,0,0,818.86292,888.67188,1584.01489,1714.47754,-0.02393,0.16419,0.98611,-1.015,0.21,0.105,7125,76568,108951
6.04,604,8501,1,0,0,0,818.86292,888.67188,1583.8623,1714.85901,-0.02356,0.16419,0.98502,-1.173,0.21,0.088,7127,76564,108950
6.05,605,8502,1,0,0,0,818.86292,888.67188,1583.9386,1714.78271,-0.02515,0.16419,0.98465,-1.173,0.263,-0.035,7127,76564,108950
6.06,606,8503,1,0,0,0,818.86292,888.67188,1584.09119,1714.85901,-0.02612,0.16175,0.98526,-1.295,0.245,0.245,7128,76564,108953
6.07,607,8504,1,0,0,0,818.86292,888.67188,1583.9386,1714.85901,-0.026,0.16175,0.98782,-1.138,0.158,0.105,7128,76564,108953
6.08,608,8505,1,0,0,0,818.86292,888.44299,1584.09119,1714.47754,-0.02564,0.16285,0.98624,-0.735,0.088,0.333,7128,76563,108946
6.09,609,8506,1,0,0,0,818.86292,888.44299,1583.8623,1714.55383,-0.02515,0.16199,0.98587,-0.735,0.228,0.228,7128,76563,108946
6.1,610,8507,1,0,0,0,818.86292,888.44299,1583.9386,1714.9353,-0.02478,0.16163,0.98441,-0.718,0.088,0.175,7125,76565,108948
6.11,611,8508,1,0,0,0,818.86292,888.44299,1583.9386,1714.47754,-0.02551,0.1615,0.98526,-0.788,0.193,0.088,7125,76565,108948
6.12,612,8509,1,0,0,0,818.86292,888.44299,1584.01489,1714.55383,-0.02673,0.16016,0.98587,-0.998,0.21,0.07,7128,76564,108950
6.13,613,8510,1,0,0,0,818.78662,888.44299,1584.24377,1714.63013,-0.02551,0.16016,0.98538,-0.858,0.333,-0.035,7128,76564,108950
6.14,614,8511,1,0,0,0,818.78662,888.44299,1583.78601,1714.55383,-0.02588,0.16028,0.98672,-0.77,0.193,-0.018,7126,76564,108951
6.15,615,8512,1,0,0,0,818.78662,888.44299,1583.9386,1714.47754,-0.02612,0.16041,0.98514,-0.753,0.158,-0.07,7126,76564,108951
6.16,616,8513,1,0,0,0,818.78662,888.44299,1583.8623,1714.70642,-0.02551,0.16163,0.98465,-0.613,0.228,-0.018,7126,76563,108949
6.17,617,8514,1,0,0,0,818.78662,888.44299,1583.8623,1714.55383,-0.02576,0.16272,0.98453,-0.438,0.245,-0.018,7126,76563,108949
6.18,618,8515,1,0,0,0,818.78662,888.59558,1583.8623,1714.70642,-0.02417,0.16346,0.98489,-0.35,0.14,-0.158,7129,76565,108948
6.19,619,8516,1,0,0,0,818.78662,888.59558,1583.70972,1714.70642,-0.02405,0.16358,0.98489,-0.56,0.21,-0.175,7129,76565,108948
6.2,620,8517,1,0,0,0,818.78662,888.59558,1583.9386,1714.55383,-0.02515,0.16175,0.98514,-0.63,0.158,-0.175,7128,76562,108951
6.21,621,8518,1,0,0,0,818.78662,888.59558,1584.01489,1714.63013,-0.02332,0.16126,0.98502,-0.613,0.105,-0.193,7128,76562,108951
6.22,622,8519,1,0,0,0,818.78662,888.59558,1584.01489,1714.70642,-0.02478,0.1615,0.98563,-0.753,0.21,-0.298,7129,76562,108947
6.23,623,8520,1,0,0,0,818.78662,888.59558,1583.9386,1714.63013,-0.02441,0.16126,0.98441,-0.683,0.21,-0.088,7129,76562,108947
6.24,624,8521,1,0,0,0,818.78662,888.59558,1583.8623,1714.78271,-0.02649,0.1626,0.98611,-0.403,0.193,-0.018,7127,76565,108948
6.25,625,8522,1,0,0,0,818.78662,888.59558,1584.09119,1715.0116,-0.02539,0.1637,0.98538,-0.438,0.28,-0.158,7127,76565,108948
6.26,626,8523,1,0,0,0,818.78662,888.59558,1584.01489,1714.9353,-0.02698,0.16651,0.9855,-0.508,0.21,-0.263,7129,76564,108950
6.27,627,8524,1,0,0,0,818.78662,888.59558,1583.9386,1714.70642,-0.02576,0.16382,0.98441,-0.56,0.105,-0.315,7129,76564,108950
6.28,628,8525,1,0,0,0,818.78662,888.51929,1584.09119,1714.9353,-0.0238,0.16187,0.98404,-0.718,0.105,-0.193,7131,76563,108947
6.29,629,8526,1,0,0,0,818.78662,888.51929,1583.55713,1714.63013,-0.02429,0.16163,0.98404,-0.805,0.158,-0.21,7131,76563,108947
6.3,630,8527,1,0,0,0,818.78662,888.51929,1584.01489,1714.78271,-0.02441,0.16028,0.98563,-0.683,0.21,-0.21,7132,76561,108949
6.31,631,8528,1,0,0,0,818.78662,888.51929,1583.8623,1714.63013,-0.02515,0.16163,0.98538,-0.438,0.21,-0.088,7132,76561,108949
6.32,632,8529,1,0,0,0,818.78662,888.51929,1583.78601,1714.47754,-0.02405,0.16578,0.98428,-0.088,0.14,-0.158,7132,76559,108944
6.33,633,8530,1,0,0,0,818.78662,888.51929,1584.01489,1714.32495,-0.02295,0.16626,0.98428,-0.333,0.228,-0.123,7132,76559,108944
6.34,634,8531,1,0,0,0,818.78662,888.51929,1583.63342,1714.47754,-0.02356,0.16663,0.98196,-0.543,0.175,-0.263,7133,76563,108944
6.35,635,8532,1,0,0,0,818.78662,888.51929,1583.70972,1714.47754,-0.02344,0.16504,0.98318,-0.683,0.158,-0.088,7133,76563,108944
6.36,636,8533,1,0,0,0,818.78662,888.51929,1583.8623,1714.70642,-0.02539,0.16321,0.98624,-0.858,0.14,-0.14,7136,76561,108952
6.37,637,8534,1,0,0,0,818.78662,888.51929,1583.78601,1714.78271,-0.02503,0.16041,0.98465,-0.718,0.35,0.035,7136,76561,108952
6.38,638,8535,1,0,0,0,818.78662,888.44299,1584.01489,1714.78271,-0.02441,0.16309,0.98428,-0.595,0.333,-0.018,7136,76565,108962
6.39,639,8536,1,0,0,0,818.78662,888.44299,1583.78601,1714.63013,-0.02405,0.16468,0.98404,-0.508,0.193,-0.14,7136,76565,108962
6.4,640,8537,1,0,0,0,818.78662,888.44299,1583.8623,1714.85901,-0.02503,0.16346,0.98721,-0.42,0.105,-0.123,7135,76566,108957
6.41,641,8538,1,0,0,0,818.78662,888.44299,1583.9386,1714.47754,-0.02564,0.15406,0.98831,0.35,-0.088,-0.07,7135,76566,108957
6.42,642,8539,1,0,0,0,818.78662,888.44299,1584.01489,1714.70642,-0.0221,0.16907,0.97891,0.823,0.123,0.193,7137,76567,108961
6.43,643,8540,1,0,0,0,818.86292,888.44299,1584.16748,1714.78271,-0.021,0.17579,0.97879,0.123,0.053,-0.07,7137,76567,108961
6.44,644,8541,1,0,0,0,818.86292,888.44299,1583.78601,1714.55383,-0.02356,0.16858,0.98074,-0.63,0.175,-0.21,7140,76564,108958
6.45,645,8542,1,0,0,0,818.86292,888.44299,1584.01489,1714.70642,-0.02722,0.16309,0.98441,-1.155,0.28,0.0,7140,76564,108958
6.46,646,8543,1,0,0,0,818.86292,888.44299,1584.01489,1715.08789,-0.026,0.16077,0.98538,-1.085,0.315,-0.21,7139,76566,108963
6.47,647,8544,1,0,0,0,818.86292,888.44299,1584.01489,1714.40125,-0.026,0.16309,0.9877,-0.613,0.193,-0.088,7139,76566,108963
6.48,648,8545,1,0,0,0,818.86292,888.3667,1583.9386,1714.55383,-0.0249,0.16456,0.9855,-0.35,0.158,-0.088,7143,76571,108966
6.49,649,8546,1,0,0,0,818.86292,888.3667,1583.70972,1714.40125,-0.02441,0.16456,0.98416,-0.455,0.105,-0.053,7143,76571,108966
6.5,650,8547,1,0,0,0,818.86292,888.3667,1584.01489,1714.47754,-0.02429,0.16553,0.98465,-0.508,0.035,-0.228,7145,76567,108960
6.51,651,8548,1,0,0,0,818.86292,888.3667,1584.01489,1714.32495,-0.02332,0.16517,0.98404,-0.455,0.105,-0.193,7145,76567,108960
6.52,652,8549,1,0,0,0,818.86292,888.3667,1583.8623,1714.78271,-0.02319,0.16688,0.98379,-0.228,0.245,-0.053,7144,76569,108963
6.53,653,8550,1,0,0,0,818.78662,888.3667,1584.01489,1714.40125,-0.02417,0.16651,0.98538,-0.455,0.175,-0.158,7144,76569,108963
6.54,654,8551,1,0,0,0,818.78662,888.3667,1583.8623,1714.55383,-0.02429,0.16358,0.98575,-0.49,0.07,0.018,7145,76568,108966
6.55,655,8552,1,0,0,0,818.78662,888.3667,1583.9386,1714.47754,-0.02466,0.16285,0.98697,-0.28,-0.035,0.035,7145,76568,108966
6.56,656,8553,1,0,0,0,818.78662,888.3667,1583.9386,1714.40125,-0.0249,0.16395,0.98526,-0.14,0.123,0.035,7149,76570,108967
6.57,657,8554,1,0,0,0,818.78662,888.3667,1584.01489,1714.47754,-0.02539,0.1648,0.98538,0.0,0.14,-0.07,7149,76570,108967
6.58,658,8555,1,0,0,0,818.78662,888.3667,1584.16748,1714.32495,-0.02503,0.1659,0.98209,0.018,0.035,-0.035,7152,76576,108972
6.59,659,8556,1,0,0,0,818.78662,888.3667,1583.70972,1714.78271,-0.02551,0.167,0.98318,-0.228,0.053,-0.053,7152,76576,108972
6.6,660,8557,1,0,0,0,818.78662,888.3667,1583.9386,1714.78271,-0.02405,0.16749,0.98233,-0.088,0.105,-0.035,7153,76572,108971
6.61,661,8558,1,0,0,0,818.78662,888.3667,1583.8623,1714.85901,-0.02332,0.16663,0.98245,-0.263,0.14,-0.21,7153,76572,108971
6.62,662,8559,1,0,0,0,818.78662,888.3667,1583.9386,1714.9353,-0.02283,0.16639,0.98392,-0.298,0.193,-0.14,7157,76573,108974
6.63,663,8560,1,0,0,0,818.78662,888.3667,1584.01489,1714.70642,-0.02551,0.16504,0.98538,-0.403,0.263,-0.088,7157,76573,108974
6.64,664,8561,1,0,0,0,818.78662,888.3667,1583.78601,1714.78271,-0.02295,0.16431,0.98355,-0.595,0.263,-0.105,7156,76574,108977
6.65,665,8562,1,0,0,0,818.78662,888.3667,1583.8623,1714.47754,-0.02283,0.16541,0.98331,-0.683,0.21,-0.228,7156,76574,108977
6.66,666,8563,1,0,0,0,818.78662,888.3667,1583.9386,1714.32495,-0.02197,0.16736,0.98172,-0.578,0.158,-0.07,7156,76576,108977
6.67,667,8564,1,0,0,0,818.78662,888.3667,1583.9386,1714.78271,-0.02185,0.16932,0.98575,-0.525,0.175,0.0,7156,76576,108977
6.68,668,8565,1,0,0,0,818.78662,888.3667,1583.8623,1714.47754,-0.02564,0.16822,0.98782,-0.753,0.21,-0.035,7160,76575,108984
6.69,669,8566,1,0,0,0,818.78662,888.3667,1583.78601,1714.47754,-0.02637,0.16565,0.98526,-1.015,0.298,-0.035,7160,76575,108984
6.7,670,8567,1,0,0,0,818.78662,888.3667,1583.9386,1714.55383,-0.02576,0.16492,0.98428,-1.173,0.245,-0.21,7158,76576,108980
6.71,671,8568,1,0,0,0,818.78662,888.3667,1583.9386,1714.17236,-0.02759,0.16553,0.98489,-0.945,0.333,-0.14,7158,76576,108980
6.72,672,8569,1,0,0,0,818.78662,888.3667,1583.8623,1714.24866,-0.02527,0.16407,0.98502,-0.49,0.21,-0.158,7158,76576,108980
6.73,673,8570,1,0,0,0,818.86292,888.3667,1584.24377,1714.85901,-0.02539,0.16749,0.98392,-0.368,0.228,-0.018,7162,76576,108984
6.74,674,8571,1,0,0,0,818.86292,888.3667,1583.70972,1714.47754,-0.02503,0.167,0.98453,-0.35,0.193,-0.21,7162,76576,108984
6.75,675,8572,1,0,0,0,818.86292,888.3667,1584.01489,1714.47754,-0.02283,0.1659,0.98331,-0.49,0.175,-0.193,7161,76572,108984
6.76,676,8573,1,0,0,0,818.86292,888.3667,1583.9386,1714.78271,-0.02197,0.16675,0.98428,-0.718,0.105,-0.35,7161,76572,108984
6.77,677,8574,1,0,0,0,818.86292,888.3667,1583.9386,1714.63013,-0.02173,0.16553,0.9855,-0.875,0.018,-0.315,7162,76571,108970
6.78,678,8575,1,0,0,0,818.86292,888.44299,1583.8623,1714.63013,-0.02258,0.16541,0.98502,-0.665,0.298,-0.175,7161,76568,108963
6.79,679,8576,1,0,0,0,818.86292,888.44299,1583.70972,1714.78271,-0.02356,0.1659,0.98514,-0.543,0.298,-0.018,7161,76568,108963
6.8,680,8577,1,0,0,0,818.86292,888.44299,1583.9386,1714.47754,-0.02551,0.16675,0.98563,-0.42,0.35,-0.105,7161,76568,108963
6.81,681,8578,1,0,0,0,818.86292,888.44299,1583.8623,1714.47754,-0.02527,0.16749,0.98245,-0.525,0.368,-0.123,7158,76566,108962
6.82,682,8579,1,0,0,0,818.86292,888.44299,1583.78601,1714.70642,-0.02503,0.16724,0.98123,-0.7,0.263,-0.35,7158,76566,108962
6.83,683,8580,1,0,0,0,818.71033,888.44299,1583.9386,1714.55383,-0.02625,0.16517,0.98379,-0.805,0.21,-0.175,7156,76567,108958
6.84,684,8581,1,0,0,0,818.71033,888.44299,1583.55713,1714.63013,-0.02539,0.16456,0.98636,-0.683,0.28,-0.315,7156,76567,108958
6.85,685,8582,1,0,0,0,818.71033,888.44299,1583.70972,1714.85901,-0.02612,0.16419,0.98575,-0.56,0.245,-0.333,7152,76569,108954
6.86,686,8583,1,0,0,0,818.71033,888.44299,1583.70972,1714.63013,-0.02466,0.16541,0.98526,-0.385,0.21,-0.193,7152,76569,108954
6.87,687,8584,1,0,0,0,818.71033,888.44299,1583.8623,1714.63013,-0.02356,0.16602,0.98355,-0.385,0.053,-0.315,7151,76560,108947
6.88,688,8585,1,0,0,0,818.71033,888.51929,1584.47266,1714.78271,-0.02564,0.16761,0.98404,-0.7,0.263,-0.543,7150,76560,108945
6.89,689,8586,1,0,0,0,818.71033,888.51929,1583.40454,1714.63013,-0.02319,0.16688,0.98392,-0.875,0.228,-0.438,7150,76560,108945
6.9,690,8587,1,0,0,0,818.71033,888.51929,1583.78601,1714.63013,-0.0238,0.16797,0.98514,-0.753,0.21,-0.368,7150,76560,108945
6.91,691,8588,1,0,0,0,818.71033,888.51929,1583.78601,1714.9353,-0.02246,0.16675,0.98428,-0.858,0.368,-0.438,7145,76557,108945
6.92,692,8589,1,0,0,0,818.71033,888.51929,1583.78601,1714.47754,-0.02417,0.1681,0.98538,-0.753,0.228,-0.263,7145,76557,108945
6.93,693,8590,1,0,0,0,818.71033,888.51929,1583.9386,1714.63013,-0.02295,0.16651,0.98404,-0.77,0.158,-0.14,7142,76556,108938
6.94,694,8591,1,0,0,0,818.71033,888.51929,1583.70972,1714.9353,-0.02246,0.16651,0.98404,-0.77,0.158,-0.14,7142,76556,108938
6.95,695,8592,1,0,0,0,818.71033,888.51929,1583.9386,1714.55383,-0.02307,0.16883,0.98221,-0.648,0.263,-0.28,7144,76554,108937
6.96,696,8593,1,0,0,0,818.71033,888.51929,1583.8623,1714.55383,-0.02295,0.16858,0.98416,-0.805,0.245,-0.175,7144,76554,108937
6.97,697,8594,1,0,0,0,818.71033,888.51929,1583.9386,1714.63013,-0.02417,0.16651,0.98428,-0.963,0.263,-0.035,7136,76550,108934
6.98,698,8595,1,0,0,0,818.71033,888.44299,1583.9386,1714.47754,-0.02576,0.16565,0.98721,-0.84,0.158,-0.07,7136,76549,108930
6.99,699,8596,1,0,0,0,818.71033,888.44299,1583.78601,1714.55383,-0.02551,0.16565,0.98575,-0.945,0.123,-0.28,7136,76549,108930
7.0,700,8597,1,0,0,0,818.71033,888.44299,1583.9386,1714.78271,-0.02673,0.16761,0.9866,-0.613,0.123,-0.263,7136,76549,108930
7.01,701,8598,1,0,0,0,818.71033,888.44299,1583.8623,1714.55383,-0.0271,0.16944,0.98404,-0.333,0.263,-0.333,7136,76549,108929
7.02,702,8599,1,0,0,0,818.71033,888.44299,1583.9386,1714.55383,-0.02503,0.16968,0.98257,-0.245,0.07,-0.123,7136,76549,108929
7.03,703,8600,1,0,0,0,818.78662,888.44299,1583.9386,1714.55383,-0.02161,0.17054,0.98038,-0.35,0.035,-0.158,7134,76551,108929
7.04,704,8601,1,0,0,0,818.78662,888.44299,1583.63342,1714.47754,-0.02271,0.16968,0.98135,-0.578,0.14,-0.035,7134,76551,108929
7.05,705,8602,1,0,0,0,818.78662,888.44299,1583.8623,1714.55383,-0.02405,0.17005,0.98526,-1.26,0.228,-0.088,7133,76546,108925
7.06,706,8603,1,0,0,0,818.78662,888.44299,1583.8623,1714.70642,-0.02258,0.16797,0.98575,-1.488,0.28,0.0,7133,76546,108925
7.07,707,8604,1,0,0,0,818.78662,888.44299,1583.8623,1714.63013,-0.02246,0.16712,0.98563,-1.523,0.35,0.053,7130,76541,108917
7.08,708,8605,1,0,0,0,818.78662,888.44299,1583.9386,1714.85901,-0.02319,0.16688,0.98685,-1.523,0.368,-0.14,7130,76541,108911
7.09,709,8606,1,0,0,0,818.78662,888.44299,1583.63342,1714.63013,-0.02271,0.16614,0.98611,-1.278,0.35,-0.088,7130,76541,108911
7.1,710,8607,1,0,0,0,818.78662,888.44299,1583.8623,1714.55383,-0.02271,0.167,0.98282,-0.963,0.298,-0.07,7130,76541,108911
7.11,711,8608,1,0,0,0,818.78662,888.44299,1583.8623,1714.55383,-0.02454,0.16883,0.98135,-0.875,0.228,0.105,7132,76538,108912
7.12,712,8609,1,0,0,0,818.78662,888.44299,1583.8623,1714.70642,-0.02503,0.16919,0.98111,-0.91,0.158,0.105,7132,76538,108912
7.13,713,8610,1,0,0,0,818.78662,888.44299,1583.9386,1714.55383,-0.02283,0.16871,0.98123,-1.068,0.123,0.088,7129,76538,108910
7.14,714,8611,1,0,0,0,818.78662,888.44299,1583.63342,1714.55383,-0.02551,0.16895,0.98465,-1.348,0.123,0.07,7129,76538,108910
7.15,715,8612,1,0,0,0,818.78662,888.44299,1583.8623,1714.78271,-0.02612,0.16456,0.98648,-1.313,0.123,0.07,7128,76536,108910
7.16,716,8613,1,0,0,0,818.78662,888.44299,1583.70972,1714.40125,-0.02478,0.16309,0.98477,-1.138,0.07,0.105,7128,76536,108910
7.17,717,8614,1,0,0,0,818.78662,888.44299,1583.9386,1714.55383,-0.02417,0.16346,0.98465,-0.998,0.105,0.0,7128,76540,108916
7.18,718,8615,1,0,0,0,818.78662,888.51929,1584.01489,1714.63013,-0.0238,0.16492,0.98526,-0.893,0.175,-0.035,7128,76540,108916
7.19,719,8616,1,0,0,0,818.78662,888.51929,1583.70972,1714.40125,-0.02441,0.16431,0.98575,-0.788,0.245,-0.158,7125,76538,108917
7.2,720,8617,1,0,0,0,818.78662,888.51929,1583.8623,1714.47754,-0.0249,0.16541,0.98502,-0.84,0.175,0.0,7125,76538,108917
7.21,721,8618,1,0,0,0,818.78662,888.51929,1583.78601,1714.24866,-0.02478,0.16736,0.98404,-0.648,0.123,0.07,7126,76537,108913
7.22,722,8619,1,0,0,0,818.78662,888.51929,1583.78601,1714.24866,-0.02356,0.16834,0.98196,-0.63,0.228,-0.035,7126,76537,108913
7.23,723,8620,1,0,0,0,818.78662,888.51929,1583.70972,1714.40125,-0.0249,0.16846,0.98184,-0.753,0.21,-0.035,7129,76535,108911
7.24,724,8621,1,0,0,0,818.78662,888.51929,1583.63342,1714.47754,-0.02283,0.16688,0.97989,-0.858,0.035,-0.018,7129,76535,108911
7.25,725,8622,1,0,0,0,818.78662,888.51929,1583.8623,1714.24866,-0.02319,0.16797,0.98306,-0.998,0.105,-0.088,7127,76533,108912
7.26,726,8623,1,0,0,0,818.78662,888.51929,1583.9386,1714.32495,-0.02405,0.16651,0.98575,-1.295,0.245,-0.053,7127,76533,108912
7.27,727,8624,1,0,0,0,818.78662,888.51929,1583.8623,1714.47754,-0.02441,0.16395,0.98746,-1.313,0.245,0.088,7129,76537,108911
7.28,728,8625,1,0,0,0,818.78662,888.51929,1583.8623,1714.63013,-0.02417,0.16334,0.98636,-1.138,0.228,-0.088,7129,76537,108911
7.29,729,8626,1,0,0,0,818.78662,888.51929,1583.8623,1714.55383,-0.0249,0.16468,0.98526,-0.648,0.088,0.0,7130,76535,108912
7.3,730,8627,1,0,0,0,818.78662,888.51929,1583.9386,1714.70642,-0.02454,0.16626,0.98196,-0.42,0.053,-0.123,7130,76535,108912
7.31,731,8628,1,0,0,0,818.78662,888.51929,1583.78601,1714.47754,-0.02527,0.16883,0.98355,-0.56,0.123,-0.035,7130,76533,108910
7.32,732,8629,1,0,0,0,818.78662,888.51929,1583.8623,1714.47754,-0.02478,0.16773,0.98331,-0.858,0.123,-0.053,7130,76533,108910
7.33,733,8630,1,0,0,0,818.71033,888.51929,1583.8623,1716.07971,-0.02588,0.16675,0.98611,-0.928,0.298,0.018,7131,76536,108919
7.34,734,8631,1,0,0,0,818.71033,888.51929,1583.48083,1714.32495,-0.02441,0.16651,0.98563,-0.893,0.35,-0.175,7131,76536,108919
7.35,735,8632,1,0,0,0,818.71033,888.51929,1583.9386,1714.55383,-0.02393,0.16492,0.98294,-0.858,0.228,0.053,7131,76536,108921
7.36,736,8633,1,0,0,0,818.71033,888.51929,1583.78601,1714.70642,-0.02307,0.16517,0.98514,-0.84,0.228,-0.298,7131,76536,108921
7.37,737,8634,1,0,0,0,818.71033,888.51929,1583.70972,1714.55383,-0.02551,0.16578,0.98758,-0.7,0.193,-0.158,7132,76532,108914
7.38,738,8635,1,0,0,0,818.71033,888.44299,1583.9386,1714.47754,-0.02503,0.16578,0.98502,-0.648,0.315,-0.21,7132,76532,108914
7.39,739,8636,1,0,0,0,818.71033,888.44299,1583.63342,1714.55383,-0.02454,0.16834,0.98477,-0.543,0.14,-0.07,7133,76534,108913
7.4,740,8637,1,0,0,0,818.71033,888.44299,1583.63342,1714.40125,-0.02307,0.16871,0.98294,-0.42,0.14,-0.035,7133,76534,108913
7.41,741,8638,1,0,0,0,818.71033,888.44299,1583.70972,1714.47754,-0.0238,0.16895,0.9827,-0.595,0.228,-0.123,7134,76535,108921
7.42,742,8639,1,0,0,0,818.71033,888.44299,1583.78601,1714.70642,-0.02332,0.16858,0.98331,-0.893,0.28,-0.123,7134,76535,108921
7.43,743,8640,1,0,0,0,818.78662,888.44299,1583.8623,1714.32495,-0.02356,0.16614,0.98416,-0.998,0.158,-0.053,7134,76535,108925
7.44,744,8641,1,0,0,0,818.78662,888.44299,1583.55713,1714.78271,-0.02344,0.167,0.98526,-1.103,0.245,-0.07,7134,76535,108925
7.45,745,8642,1,0,0,0,818.78662,888.44299,1583.8623,1714.55383,-0.02515,0.16712,0.98636,-1.033,0.368,-0.053,7136,76537,108922
7.46,746,8643,1,0,0,0,818.78662,888.44299,1583.9386,1714.40125,-0.02466,0.1648,0.98392,-0.823,0.263,-0.14,7136,76537,108922
7.47,747,8644,1,0,0,0,818.78662,888.44299,1583.9386,1714.40125,-0.02454,0.16541,0.98392,-0.455,0.193,-0.088,7138,76535,108921
7.48,748,8645,1,0,0,0,818.78662,888.51929,1584.09119,1714.55383,-0.02429,0.16651,0.98416,-0.42,0.175,-0.105,7138,76535,108921
7.49,749,8646,1,0,0,0,818.78662,888.51929,1583.78601,1714.47754,-0.02527,0.16578,0.98502,-0.7,0.315,-0.193,7140,76536,108924
7.5,750,8647,1,0,0,0,818.78662,888.51929,1583.8623,1714.40125,-0.02503,0.16529,0.98428,-0.84,0.228,-0.175,7140,76536,108924
7.51,751,8648,1,0,0,0,818.78662,888.51929,1583.8623,1714.55383,-0.02564,0.16626,0.98477,-0.63,0.193,-0.105,7141,76541,108930
7.52,752,8649,1,0,0,0,818.78662,888.51929,1583.8623,1714.47754,-0.02551,0.16871,0.98233,-0.735,0.315,-0.28,7141,76541,108930
7.53,753,8650,1,0,0,0,818.86292,888.51929,1583.9386,1714.63013,-0.02454,0.16956,0.98392,-0.928,0.28,-0.14,7141,76542,108925
7.54,754,8651,1,0,0,0,818.86292,888.51929,1583.63342,1714.47754,-0.02319,0.167,0.98379,-0.788,0.228,-0.14,7141,76542,108925
7.55,755,8652,1,0,0,0,818.86292,888.51929,1583.78601,1714.40125,-0.02222,0.16736,0.98404,-0.735,0.14,-0.21,7147,76539,108926
7.56,756,8653,1,0,0,0,818.86292,888.51929,1583.8623,1714.40125,-0.02319,0.16724,0.98355,-0.788,0.228,-0.28,7147,76539,108926
7.57,757,8654,1,0,0,0,818.86292,888.51929,1583.8623,1714.63013,-0.02368,0.16675,0.98465,-0.84,0.245,-0.158,7144,76543,108932
7.58,758,8655,1,0,0,0,818.86292,888.3667,1583.78601,1714.24866,-0.02551,0.16761,0.98782,-0.718,0.245,-0.105,7144,76543,108932
7.59,759,8656,1,0,0,0,818.86292,888.3667,1583.70972,1714.40125,-0.0249,0.16773,0.98502,-0.508,0.403,0.0,7145,76541,108934
7.6,760,8657,1,0,0,0,818.86292,888.3667,1583.8623,1714.85901,-0.02393,0.1698,0.98379,-0.56,0.315,-0.088,7145,76541,108934
7.61,761,8658,1,0,0,0,818.86292,888.3667,1583.70972,1714.47754,-0.02564,0.17017,0.9855,-0.858,0.263,-0.123,7147,76545,108933
7.62,762,8659,1,0,0,0,818.86292,888.3667,1583.78601,1714.47754,-0.02454,0.16907,0.98379,-1.208,0.21,0.053,7147,76545,108933
7.63,763,8660,1,0,0,0,818.78662,888.3667,1584.01489,1714.40125,-0.02319,0.16858,0.98221,-1.313,0.28,0.28,7152,76542,108932
7.64,764,8661,1,0,0,0,818.78662,888.3667,1583.55713,1714.47754,-0.02258,0.16761,0.98257,-1.278,0.333,0.175,7152,76542,108932
7.65,765,8662,1,0,0,0,818.78662,888.3667,1583.78601,1714.55383,-0.02307,0.16626,0.98465,-1.313,0.28,0.053,7151,76540,108929
7.66,766,8663,1,0,0,0,818.78662,888.3667,1583.70972,1714.70642,-0.02258,0.16541,0.98367,-1.295,0.14,0.123,7151,76540,108929
7.67,767,8664,1,0,0,0,818.78662,888.3667,1583.8623,1714.63013,-0.02466,0.16565,0.98526,-1.33,0.158,0.228,7155,76539,108931
7.68,768,8665,1,0,0,0,818.78662,888.44299,1583.8623,1714.47754,-0.02564,0.16736,0.98587,-0.648,0.088,0.14,7155,76539,108931
7.69,769,8666,1,0,0,0,818.78662,888.44299,1583.63342,1714.55383,-0.02686,0.17029,0.98477,-0.683,0.105,-0.07,7153,76540,108934
7.7,770,8667,1,0,0,0,818.78662,888.44299,1583.70972,1714.32495,-0.02466,0.1681,0.98209,-0.84,0.193,-0.035,7153,76540,108934
7.71,771,8668,1,0,0,0,818.78662,888.44299,1583.8623,1714.55383,-0.02515,0.16663,0.98196,-1.138,0.245,0.245,7155,76540,108931
7.72,772,8669,1,0,0,0,818.78662,888.44299,1583.70972,1714.78271,-0.0249,0.16504,0.98074,-1.453,0.245,0.385,7155,76540,108931
7.73,773,8670,1,0,0,0,818.78662,888.44299,1583.70972,1714.32495,-0.02112,0.16919,0.98453,-1.243,0.0,0.385,7158,76541,108934
7.74,774,8671,1,0,0,0,818.78662,888.44299,1583.63342,1714.32495,-0.02051,0.16907,0.98477,-1.4,0.088,0.28,7158,76541,108934
7.75,775,8672,1,0,0,0,818.78662,888.44299,1583.78601,1714.40125,-0.02478,0.16749,0.98807,-1.47,0.28,0.35,7159,76542,108931
7.76,776,8673,1,0,0,0,818.78662,888.44299,1583.8623,1714.32495,-0.02478,0.16382,0.98758,-1.488,0.28,0.158,7159,76542,108931
7.77,777,8674,1,0,0,0,818.78662,888.44299,1583.8623,1714.32495,-0.02637,0.16248,0.9855,-1.278,0.193,0.088,7161,76545,108940
7.78,778,8675,1,0,0,0,818.78662,888.59558,1584.09119,1714.40125,-0.02576,0.16602,0.98465,-0.613,0.175,0.105,7161,76545,108940
7.79,779,8676,1,0,0,0,818.78662,888.59558,1583.70972,1714.40125,-0.02686,0.16626,0.98514,-0.613,0.28,0.088,7163,76540,108934
7.8,780,8677,1,0,0,0,818.78662,888.59558,1583.8623,1714.17236,-0.02698,0.16565,0.98294,-0.735,0.193,0.14,7163,76540,108934
7.81,781,8678,1,0,0,0,818.78662,888.59558,1583.8623,1715.46936,-0.02564,0.16468,0.98184,-0.945,0.228,0.158,7167,76539,108930
7.82,782,8679,1,0,0,0,818.78662,888.59558,1583.70972,1714.40125,-0.0238,0.16419,0.98245,-0.858,0.07,0.018,7167,76539,108930
7.83,783,8680,1,0,0,0,818.78662,888.59558,1583.8623,1714.32495,-0.02368,0.1659,0.98599,-0.718,0.088,-0.053,7165,76543,108930
7.84,784,8681,1,0,0,0,818.78662,888.59558,1583.55713,1715.08789,-0.02283,0.16492,0.98563,-0.91,0.21,0.07,7165,76543,108930
7.85,785,8682,1,0,0,0,818.78662,888.59558,1583.70972,1714.47754,-0.0238,0.16517,0.98575,-1.05,0.175,0.0,7166,76542,108926
7.86,786,8683,1,0,0,0,818.78662,888.59558,1583.70972,1714.32495,-0.02283,0.16504,0.98502,-0.998,0.21,-0.07,7166,76542,108926
7.87,787,8684,1,0,0,0,818.78662,888.59558,1583.63342,1714.47754,-0.02405,0.16651,0.98502,-1.068,0.228,-0.053,7162,76539,108924
7.88,788,8685,1,0,0,0,818.78662,888.29041,1583.8623,1714.32495,-0.02478,0.16724,0.98233,-1.033,0.28,0.105,7162,76539,108924
7.89,789,8686,1,0,0,0,818.78662,888.29041,1583.55713,1714.40125,-0.02478,0.167,0.98367,-0.963,0.175,0.0,7161,76540,108915
7.9,790,8687,1,0,0,0,818.78662,888.29041,1583.70972,1714.70642,-0.02734,0.16675,0.9855,-0.823,0.28,0.018,7161,76540,108915
7.91,791,8688,1,0,0,0,818.78662,888.29041,1583.70972,1714.32495,-0.02564,0.16419,0.98526,-0.753,0.158,0.14,7161,76537,108916
7.92,792,8689,1,0,0,0,818.78662,888.29041,1583.70972,1714.24866,-0.02576,0.16309,0.98636,-1.015,0.14,-0.333,7161,76537,108916
7.93,793,8690,1,0,0,0,818.78662,888.29041,1584.09119,1714.32495,-0.02527,0.16456,0.98502,-0.543,0.193,-0.28,7155,76536,108913
7.94,794,8691,1,0,0,0,818.78662,888.29041,1583.48083,1714.17236,-0.02466,0.16639,0.98538,-0.49,0.228,-0.228,7155,76536,108913
7.95,795,8692,1,0,0,0,818.78662,888.29041,1583.70972,1714.32495,-0.02258,0.16688,0.98233,-0.49,0.21,-0.298,7153,76534,108909
7.96,796,8693,1,0,0,0,818.78662,888.29041,1583.70972,1714.32495,-0.0238,0.16541,0.98282,-0.525,0.245,-0.175,7153,76534,108909
7.97,797,8694,1,0,0,0,818.78662,888.29041,1583.78601,1714.24866,-0.02466,0.16651,0.98477,-0.63,0.21,-0.315,7153,76531,108910
7.98,798,8695,1,0,0,0,818.78662,888.29041,1583.8623,1714.32495,-0.02405,0.16602,0.98526,-0.088,-0.035,-0.123,7153,76531,108910
7.99,799,8696,1,0,0,0,818.78662,888.29041,1583.55713,1714.24866,-0.02454,0.167,0.98538,-0.07,0.035,-0.193,7150,76527,108902
8.0,800,8697,1,0,0,0,818.78662,888.29041,1583.70972,1714.17236,-0.02417,0.16578,0.98685,0.0,0.123,-0.228,7150,76527,108902
8.01,801,8698,1,0,0,0,818.78662,888.29041,1583.78601,1714.32495,-0.02295,0.16761,0.98294,0.018,0.158,-0.158,7147,76526,108897
8.02,802,8699,1,0,0,0,818.78662,888.29041,1583.78601,1714.55383,-0.02368,0.17176,0.9816,-0.403,0.175,-0.245,7147,76526,108897
8.03,803,8700,1,0,0,0,818.78662,888.29041,1583.78601,1714.40125,-0.02271,0.17273,0.98257,-1.54,0.385,-0.123,7144,76523,108889
8.04,804,8701,1,0,0,0,818.78662,888.29041,1583.63342,1714.70642,-0.02454,0.16724,0.98416,-2.24,0.438,-0.123,7144,76523,108889
8.05,805,8702,1,0,0,0,818.78662,888.29041,1583.8623,1714.47754,-0.02551,0.16297,0.98538,-2.38,0.455,-0.14,7144,76523,108889
8.06,806,8703,1,0,0,0,818.78662,888.29041,1583.78601,1714.32495,-0.02612,0.16236,0.98538,-1.943,0.508,-0.105,7144,76523,108889
8.07,807,8704,1,0,0,0,818.78662,888.29041,1583.8623,1714.40125,-0.02503,0.16407,0.98453,-1.418,0.298,0.088,7143,76524,108885
8.08,808,8705,1,0,0,0,818.78662,888.44299,1583.9386,1714.24866,-0.02332,0.16797,0.98184,-0.665,0.193,0.035,7143,76524,108885
8.09,809,8706,1,0,0,0,818.78662,888.44299,1583.70972,1714.63013,-0.02515,0.16797,0.98196,-0.963,0.28,-0.018,7140,76518,108881
8.1,810,8707,1,0,0,0,818.78662,888.44299,1583.78601,1714.40125,-0.02405,0.16578,0.9816,-1.208,0.298,-0.21,7140,76518,108881
8.11,811,8708,1,0,0,0,818.78662,888.44299,1583.8623,1714.70642,-0.02405,0.16553,0.98441,-0.91,0.21,0.018,7138,76517,108879
8.12,812,8709,1,0,0,0,818.78662,888.44299,1583.78601,1714.24866,-0.02258,0.16626,0.98318,-0.928,0.175,0.035,7138,76517,108879
8.13,813,8710,1,0,0,0,818.78662,888.44299,1583.8623,1714.17236,-0.02185,0.16919,0.98355,-0.928,0.315,-0.123,7138,76516,108878
8.14,814,8711,1,0,0,0,818.78662,888.44299,1583.63342,1714.47754,-0.02075,0.16797,0.98135,-1.295,0.368,-0.035,7138,76516,108878
8.15,815,8712,1,0,0,0,818.78662,888.44299,1583.70972,1714.70642,-0.02454,0.16602,0.98465,-1.873,0.385,0.105,7138,76515,108875
8.16,816,8713,1,0,0,0,818.78662,888.44299,1583.78601,1714.32495,-0.0249,0.1648,0.98453,-1.873,0.35,-0.07,7138,76515,108875
8.17,817,8714,1,0,0,0,818.78662,888.44299,1583.78601,1714.55383,-0.02515,0.16797,0.98526,-1.435,0.333,0.0,7139,76512,108870
8.18,818,8715,1,0,0,0,818.78662,888.21411,1583.8623,1714.09607,-0.02429,0.16932,0.98477,-1.085,0.298,0.28,7139,76512,108870
8.19,819,8716,1,0,0,0,818.78662,888.21411,1583.8623,1714.17236,-0.02576,0.16907,0.98514,-1.173,0.28,0.158,7138,76511,108869
8.2,820,8717,1,0,0,0,818.78662,888.21411,1583.70972,1714.47754,-0.02527,0.16431,0.98538,-1.645,0.245,0.263,7138,76511,108869
8.21,821,8718,1,0,0,0,818.78662,888.21411,1583.8623,1714.32495,-0.02466,0.16346,0.98392,-1.348,0.28,0.298,7136,76513,108876
8.22,822,8719,1,0,0,0,818.78662,888.21411,1583.8623,1714.32495,-0.0238,0.16407,0.98379,-1.033,0.193,0.333,7136,76513,108876
8.23,823,8720,1,0,0,0,818.78662,888.21411,1584.01489,1714.24866,-0.02283,0.1648,0.98441,-1.05,0.158,0.35,7136,76514,108877
8.24,824,8721,1,0,0,0,818.78662,888.21411,1583.48083,1714.17236,-0.02368,0.16346,0.98477,-1.208,0.263,0.053,7136,76514,108877
8.25,825,8722,1,0,0,0,818.78662,888.21411,1583.70972,1714.09607,-0.02686,0.16199,0.9888,-1.313,0.473,-0.053,7136,76512,108874
8.26,826,8723,1,0,0,0,818.78662,888.21411,1583.78601,1714.17236,-0.0249,0.16297,0.98843,-0.788,0.403,-0.35,7136,76512,108874
8.27,827,8724,1,0,0,0,818.78662,888.21411,1583.8623,1714.01978,-0.02405,0.16431,0.9877,-0.578,0.263,-0.543,7134,76509,108879
8.28,828,8725,1,0,0,0,818.78662,888.3667,1583.63342,1714.32495,-0.02319,0.16321,0.98428,-0.403,0.315,-0.21,7134,76509,108879
8.29,829,8726,1,0,0,0,818.78662,888.3667,1583.63342,1714.17236,-0.02417,0.1659,0.98379,-0.228,0.14,-0.07,7135,76508,108873
8.3,830,8727,1,0,0,0,818.78662,888.3667,1583.78601,1714.17236,-0.02478,0.16712,0.98123,-0.368,0.263,0.123,7135,76508,108873
8.31,831,8728,1,0,0,0,818.78662,888.3667,1583.78601,1714.01978,-0.02625,0.16688,0.98111,-0.7,0.263,-0.035,7137,76514,108882
8.32,832,8729,1,0,0,0,818.78662,888.3667,1583.8623,1714.24866,-0.02722,0.16773,0.98331,-1.05,0.21,-0.018,7137,76514,108882
8.33,833,8730,1,0,0,0,818.71033,888.3667,1583.8623,1714.32495,-0.02564,0.1659,0.98209,-1.155,0.263,0.018,7136,76513,108880
8.34,834,8731,1,0,0,0,818.71033,888.3667,1583.63342,1714.17236,-0.02612,0.16517,0.98465,-1.208,0.193,0.053,7136,76513,108880
8.35,835,8732,1,0,0,0,818.71033,888.3667,1583.78601,1714.40125,-0.02466,0.16395,0.98453,-1.12,0.21,0.0,7136,76507,108883
8.36,836,8733,1,0,0,0,818.71033,888.3667,1583.78601,1714.32495,-0.02478,0.16468,0.98441,-0.963,0.228,0.0,7136,76507,108883
8.37,837,8734,1,0,0,0,818.71033,888.3667,1583.78601,1714.40125,-0.02429,0.16492,0.98355,-1.015,0.14,0.0,7137,76517,108889
8.38,838,8735,1,0,0,0,818.71033,888.3667,1583.9386,1714.17236,-0.02441,0.16541,0.98733,-1.05,0.228,-0.035,7137,76517,108889
8.39,839,8736,1,0,0,0,818.71033,888.3667,1583.55713,1714.24866,-0.02429,0.16456,0.98489,-0.875,0.07,0.07,7138,76515,108891
8.4,840,8737,1,0,0,0,818.71033,888.3667,1583.63342,1714.24866,-0.02466,0.16541,0.98392,-0.893,0.123,-0.123,7138,76515,108891
8.41,841,8738,1,0,0,0,818.71033,888.3667,1583.70972,1714.78271,-0.02503,0.1659,0.98575,-0.875,0.14,0.018,7139,76519,108889
8.42,842,8739,1,0,0,0,818.71033,888.3667,1583.55713,1714.17236,-0.02539,0.16578,0.98709,-0.98,0.21,-0.018,7139,76519,108889
8.43,843,8740,1,0,0,0,818.63403,888.3667,1583.78601,1714.17236,-0.02478,0.16541,0.98428,-1.103,0.228,0.035,7139,76516,108893
8.44,844,8741,1,0,0,0,818.63403,888.3667,1583.32825,1714.32495,-0.02454,0.16602,0.98465,-1.068,0.193,0.07,7139,76516,108893
8.45,845,8742,1,0,0,0,818.63403,888.3667,1583.63342,1714.17236,-0.02417,0.16651,0.98453,-0.84,0.105,0.175,7140,76521,108894
8.46,846,8743,1,0,0,0,818.63403,888.3667,1583.63342,1714.24866,-0.0249,0.16553,0.98477,-0.875,0.245,-0.07,7140,76521,108894
8.47,847,8744,1,0,0,0,818.63403,888.3667,1583.70972,1714.70642,-0.026,0.16529,0.98563,-0.928,0.193,-0.053,7143,76520,108901
8.48,848,8745,1,0,0,0,818.63403,888.29041,1583.70972,1714.32495,-0.02271,0.16565,0.98343,-0.998,0.14,0.245,7143,76520,108901
8.49,849,8746,1,0,0,0,818.63403,888.29041,1583.70972,1714.24866,-0.02307,0.16541,0.98367,-1.033,0.088,0.21,7142,76520,108898
8.5,850,8747,1,0,0,0,818.63403,888.29041,1583.78601,1714.32495,-0.02393,0.16517,0.98392,-0.998,0.28,0.123,7142,76520,108898
8.51,851,8748,1,0,0,0,818.63403,888.29041,1583.78601,1714.17236,-0.02576,0.1648,0.98636,-1.05,0.35,-0.053,7142,76523,108901
8.52,852,8749,1,0,0,0,818.63403,888.29041,1583.78601,1714.17236,-0.026,0.16407,0.98465,-1.173,0.333,-0.035,7142,76523,108901
8.53,853,8750,1,0,0,0,818.71033,888.29041,1583.9386,1714.32495,-0.02588,0.16382,0.98477,-1.05,0.228,0.193,7146,76520,108903
8.54,854,8751,1,0,0,0,818.71033,888.29041,1583.48083,1714.32495,-0.02539,0.16407,0.98733,-0.998,0.193,0.14,7146,76520,108903
8.55,855,8752,1,0,0,0,818.71033,888.29041,1583.78601,1714.09607,-0.02454,0.16443,0.9866,-0.963,0.228,0.088,7148,76525,108906
8.56,856,8753,1,0,0,0,818.71033,888.29041,1583.70972,1714.32495,-0.02271,0.16334,0.98367,-0.788,0.35,-0.053,7148,76525,108906
8.57,857,8754,1,0,0,0,818.71033,888.29041,1583.70972,1714.32495,-0.02332,0.16321,0.98477,-1.015,0.263,-0.14,7150,76529,108911
8.58,858,8755,1,0,0,0,818.71033,888.44299,1583.70972,1714.24866,-0.02417,0.16248,0.98404,-0.963,0.228,-0.035,7150,76529,108911
8.59,859,8756,1,0,0,0,818.71033,888.44299,1583.63342,1714.24866,-0.02576,0.16456,0.98611,-0.823,0.175,-0.053,7149,76526,108905
8.6,860,8757,1,0,0,0,818.71033,888.44299,1583.63342,1714.01978,-0.02429,0.16578,0.98538,-0.63,0.21,-0.018,7149,76526,108905
8.61,861,8758,1,0,0,0,818.71033,888.44299,1583.78601,1713.86719,-0.02637,0.16639,0.98526,-0.805,0.245,-0.14,7151,76529,108909
8.62,862,8759,1,0,0,0,818.71033,888.44299,1583.63342,1714.55383,-0.02588,0.16407,0.98465,-0.893,0.14,0.018,7151,76529,108909
8.63,863,8760,1,0,0,0,818.71033,888.44299,1583.8623,1714.17236,-0.02454,0.16407,0.98379,-0.84,0.193,-0.035,7155,76534,108920
8.64,864,8761,1,0,0,0,818.71033,888.44299,1583.55713,1714.09607,-0.02503,0.16443,0.98392,-0.84,0.21,0.0,7155,76534,108920
8.65,865,8762,1,0,0,0,818.71033,888.44299,1583.70972,1714.40125,-0.02576,0.16346,0.98477,-0.805,0.263,-0.123,7153,76533,108924
8.66,866,8763,1,0,0,0,818.71033,888.44299,1583.70972,1714.24866,-0.02478,0.16272,0.98489,-0.753,0.228,-0.018,7153,76533,108924
8.67,867,8764,1,0,0,0,818.71033,888.44299,1583.70972,1714.24866,-0.02454,0.16248,0.98538,-0.63,0.28,-0.088,7158,76534,108923
8.68,868,8765,1,0,0,0,818.71033,888.3667,1584.39636,1714.24866,-0.02466,0.16431,0.9855,-0.473,0.263,-0.088,7158,76534,108923
8.69,869,8766,1,0,0,0,818.71033,888.3667,1583.63342,1714.24866,-0.02393,0.16663,0.98453,-0.42,0.28,-0.193,7162,76535,108924
8.7,870,8767,1,0,0,0,818.71033,888.3667,1583.78601,1714.24866,-0.02356,0.16626,0.98294,-0.543,0.245,0.123,7162,76535,108924
8.71,871,8768,1,0,0,0,818.71033,888.3667,1583.70972,1714.63013,-0.02356,0.16663,0.98392,-0.7,0.21,0.035,7164,76535,108931
8.72,872,8769,1,0,0,0,818.71033,888.3667,1583.70972,1714.24866,-0.02466,0.1637,0.98538,-0.683,0.333,0.035,7164,76535,108931
8.73,873,8770,1,0,0,0,818.78662,888.3667,1583.70972,1714.17236,-0.02393,0.16382,0.98477,-0.665,0.28,-0.193,7160,76535,108931
8.74,874,8771,1,0,0,0,818.78662,888.3667,1583.40454,1714.47754,-0.02588,0.16578,0.98587,-0.525,0.228,-0.298,7160,76535,108931
8.75,875,8772,1,0,0,0,818.78662,888.3667,1583.78601,1713.94348,-0.02576,0.16663,0.98514,-0.56,0.175,-0.123,7164,76535,108930
8.76,876,8773,1,0,0,0,818.78662,888.3667,1583.70972,1713.94348,-0.02441,0.16553,0.98404,-0.578,0.315,-0.28,7164,76535,108930
8.77,877,8774,1,0,0,0,818.78662,888.3667,1583.70972,1714.09607,-0.02271,0.16736,0.97903,-0.578,0.228,-0.298,7164,76536,108931
8.78,878,8775,1,0,0,0,818.78662,888.21411,1583.63342,1714.01978,-0.02234,0.16883,0.98282,-0.735,0.175,-0.123,7164,76536,108931
8.79,879,8776,1,0,0,0,818.78662,888.21411,1583.63342,1714.09607,-0.0221,0.16883,0.98392,-1.015,0.28,-0.21,7168,76535,108937
8.8,880,8777,1,0,0,0,818.78662,888.21411,1583.55713,1714.40125,-0.02246,0.16895,0.98721,-1.33,0.333,-0.245,7168,76535,108937
8.81,881,8778,1,0,0,0,818.78662,888.21411,1583.63342,1714.01978,-0.02344,0.16614,0.98941,-1.418,0.28,-0.088,7168,76535,108937
8.82,882,8779,1,0,0,0,818.78662,888.21411,1583.63342,1713.86719,-0.02564,0.16211,0.98807,-1.365,0.385,0.07,7169,76539,108944
8.83,883,8780,1,0,0,0,818.63403,888.21411,1583.63342,1714.09607,-0.02649,0.16138,0.98257,-0.735,0.28,-0.245,7173,76540,108946
8.84,884,8781,1,0,0,0,818.63403,888.21411,1583.09937,1715.69824,-0.02637,0.16517,0.98416,-0.438,0.193,-0.333,7173,76540,108946
8.85,885,8782,1,0,0,0,818.63403,888.21411,1583.70972,1714.01978,-0.02649,0.16626,0.98257,-0.28,0.21,-0.245,7173,76540,108946
8.86,886,8783,1,0,0,0,818.63403,888.21411,1583.63342,1714.24866,-0.02783,0.1681,0.98538,-0.49,0.333,-0.298,7174,76541,108946
8.87,887,8784,1,0,0,0,818.63403,888.21411,1583.63342,1714.09607,-0.02612,0.16553,0.98465,-0.543,0.228,-0.088,7174,76541,108946
8.88,888,8785,1,0,0,0,818.63403,888.13782,1583.70972,1714.09607,-0.02527,0.16248,0.98697,-0.718,0.193,-0.28,7175,76538,108941
8.89,889,8786,1,0,0,0,818.63403,888.13782,1583.40454,1714.55383,-0.02197,0.16272,0.98672,-0.175,0.088,-0.385,7175,76538,108941
8.9,890,8787,1,0,0,0,818.63403,888.13782,1583.48083,1714.09607,-0.02087,0.16517,0.98782,-0.035,0.175,-0.175,7175,76537,108936
8.91,891,8788,1,0,0,0,818.63403,888.13782,1583.55713,1714.09607,-0.0199,0.16749,0.98392,-0.14,0.228,-0.403,7175,76537,108936
8.92,892,8789,1,0,0,0,818.63403,888.13782,1583.48083,1714.17236,-0.02295,0.16773,0.98294,-0.315,0.21,-0.368,7173,76542,108940
8.93,893,8790,1,0,0,0,818.55774,888.13782,1583.70972,1714.01978,-0.02149,0.16858,0.97977,-0.49,0.298,-0.333,7172,76543,108932
8.94,894,8791,1,0,0,0,818.55774,888.13782,1583.25195,1714.09607,-0.02271,0.16944,0.98184,-0.788,0.35,-0.35,7172,76543,108932
8.95,895,8792,1,0,0,0,818.55774,888.13782,1583.48083,1714.24866,-0.02393,0.16883,0.98416,-1.085,0.263,-0.228,7172,76543,108932
8.96,896,8793,1,0,0,0,818.55774,888.13782,1583.32825,1714.09607,-0.02576,0.16492,0.98795,-1.138,0.315,-0.21,7170,76540,108936
8.97,897,8794,1,0,0,0,818.55774,888.13782,1583.48083,1714.01978,-0.02551,0.16138,0.9877,-1.225,0.42,-0.35,7170,76540,108936
8.98,898,8795,1,0,0,0,818.55774,888.21411,1583.8623,1714.09607,-0.02441,0.16004,0.98441,-0.525,0.263,-0.21,7170,76544,108942
8.99,899,8796,1,0,0,0,818.55774,888.21411,1583.17566,1713.94348,-0.0249,0.16431,0.98221,-0.035,0.245,-0.228,7170,76544,108942
9.0,900,8797,1,0,0,0,818.55774,888.21411,1583.70972,1714.09607,-0.02454,0.16846,0.98099,-0.035,0.158,-0.35,7162,76543,108934
9.01,901,8798,1,0,0,0,818.55774,888.21411,1583.48083,1714.17236,-0.02393,0.17054,0.98001,-0.123,0.28,-0.42,7162,76543,108934
9.02,902,8799,1,0,0,0,818.55774,888.21411,1583.55713,1714.01978,-0.02564,0.17115,0.98257,-0.42,0.403,-0.49,7164,76540,108936
9.03,903,8800,1,0,0,0,818.71033,888.21411,1583.55713,1714.01978,-0.02393,0.16626,0.98672,-0.98,0.35,-0.525,7164,76540,108933
9.04,904,8801,1,0,0,0,818.71033,888.21411,1583.32825,1714.32495,-0.02319,0.16504,0.98746,-0.91,0.263,-0.49,7164,76540,108933
9.05,905,8802,1,0,0,0,818.71033,888.21411,1583.63342,1714.01978,-0.02258,0.1637,0.98587,-0.823,0.35,-0.333,7164,76540,108933
9.06,906,8803,1,0,0,0,818.71033,888.21411,1583.55713,1714.01978,-0.02246,0.1637,0.98306,-0.403,0.21,-0.193,7161,76538,108931
9.07,907,8804,1,0,0,0,818.71033,888.21411,1583.55713,1714.09607,-0.02222,0.16504,0.98123,-0.455,0.228,-0.455,7161,76538,108931
9.08,908,8805,1,0,0,0,818.71033,888.06152,1583.63342,1714.01978,-0.02295,0.16944,0.98306,-0.455,0.333,-0.403,7155,76537,108923
9.09,909,8806,1,0,0,0,818.71033,888.06152,1583.48083,1713.94348,-0.02246,0.1698,0.98343,-0.788,0.263,-0.298,7155,76537,108923
9.1,910,8807,1,0,0,0,818.71033,888.06152,1583.70972,1714.17236,-0.026,0.16834,0.98428,-1.085,0.28,-0.193,7156,76538,108924
9.11,911,8808,1,0,0,0,818.71033,888.06152,1583.63342,1714.01978,-0.0271,0.16724,0.98221,-0.963,0.28,0.018,7156,76538,108924
9.12,912,8809,1,0,0,0,818.71033,888.06152,1583.70972,1714.01978,-0.02649,0.16688,0.98331,-0.858,0.21,-0.14,7155,76537,108920
9.13,913,8810,1,0,0,0,818.71033,888.06152,1583.8623,1714.09607,-0.02466,0.16956,0.98428,-0.7,0.28,-0.263,7151,76529,108912
9.14,914,8811,1,0,0,0,818.71033,888.06152,1583.48083,1714.01978,-0.02417,0.1698,0.98209,-0.893,0.28,-0.193,7151,76529,108912
9.15,915,8812,1,0,0,0,818.71033,888.06152,1583.70972,1714.09607,-0.02478,0.16883,0.98526,-0.928,0.298,0.0,7151,76529,108912
9.16,916,8813,1,0,0,0,818.71033,888.06152,1583.70972,1714.24866,-0.02271,0.16773,0.98502,-0.963,0.245,0.018,7151,76530,108914
9.17,917,8814,1,0,0,0,818.71033,888.06152,1583.63342,1713.94348,-0.02222,0.16834,0.98196,-1.068,0.228,0.158,7151,76530,108914
9.18,918,8815,1,0,0,0,818.71033,888.21411,1583.70972,1713.79089,-0.02185,0.16639,0.98318,-1.19,0.07,0.158,7150,76528,108912
9.19,919,8816,1,0,0,0,818.71033,888.21411,1583.48083,1714.24866,-0.02283,0.16626,0.98587,-1.278,0.14,0.193,7150,76528,108912
9.2,920,8817,1,0,0,0,818.71033,888.21411,1583.70972,1714.01978,-0.02454,0.16724,0.98709,-1.453,0.228,0.035,7149,76530,108911
9.21,921,8818,1,0,0,0,818.71033,888.21411,1583.70972,1714.24866,-0.02454,0.16565,0.98502,-1.418,0.28,-0.018,7149,76530,108911
9.22,922,8819,1,0,0,0,818.71033,888.21411,1583.63342,1714.32495,-0.02551,0.16565,0.98502,-1.103,0.245,0.158,7152,76529,108916
9.23,923,8820,1,0,0,0,818.71033,888.21411,1583.78601,1714.17236,-0.02551,0.16614,0.98441,-1.015,0.315,-0.123,7152,76529,108916
9.24,924,8821,1,0,0,0,818.71033,888.21411,1583.70972,1714.32495,-0.0249,0.16504,0.98294,-1.19,0.35,0.105,7148,76533,108916
9.25,925,8822,1,0,0,0,818.71033,888.21411,1583.63342,1714.47754,-0.02625,0.1637,0.98599,-1.173,0.298,0.315,7148,76533,108916
9.26,926,8823,1,0,0,0,818.71033,888.21411,1583.70972,1714.17236,-0.02673,0.16272,0.98685,-0.91,0.298,0.245,7146,76534,108913
9.27,927,8824,1,0,0,0,818.71033,888.21411,1583.8623,1714.17236,-0.0249,0.16407,0.98404,-0.578,0.245,0.053,7146,76534,108913
9.28,928,8825,1,0,0,0,818.71033,888.21411,1584.24377,1714.55383,-0.02503,0.16626,0.98343,-0.438,0.14,-0.088,7145,76533,108915
9.29,929,8826,1,0,0,0,818.71033,888.21411,1583.40454,1713.86719,-0.02503,0.16626,0.98343,-0.368,0.228,-0.088,7145,76533,108915
9.3,930,8827,1,0,0,0,818.71033,888.21411,1583.63342,1713.94348,-0.02466,0.16419,0.98343,-0.735,0.28,-0.193,7146,76533,108910
9.31,931,8828,1,0,0,0,818.71033,888.21411,1583.63342,1714.01978,-0.0249,0.16395,0.98575,-0.753,0.228,-0.368,7146,76533,108910
9.32,932,8829,1,0,0,0,818.71033,888.21411,1583.70972,1713.86719,-0.02441,0.16272,0.98563,-0.63,0.158,-0.28,7144,76530,108916
9.33,933,8830,1,0,0,0,818.71033,888.21411,1583.55713,1713.86719,-0.02515,0.16651,0.98709,-0.385,0.088,-0.175,7144,76530,108916
9.34,934,8831,1,0,0,0,818.71033,888.21411,1583.63342,1714.01978,-0.02417,0.16785,0.98465,-0.298,0.21,-0.315,7145,76532,108914
9.35,935,8832,1,0,0,0,818.71033,888.21411,1583.70972,1713.86719,-0.02429,0.16883,0.98331,-0.403,0.14,-0.123,7145,76532,108914
9.36,936,8833,1,0,0,0,818.71033,888.21411,1583.78601,1713.94348,-0.02332,0.16614,0.98172,-0.35,0.28,-0.105,7144,76534,108910
9.37,937,8834,1,0,0,0,818.71033,888.21411,1583.78601,1714.32495,-0.02344,0.16834,0.98233,-0.473,0.228,-0.228,7144,76534,108910
9.38,938,8835,1,0,0,0,818.71033,888.29041,1583.63342,1713.94348,-0.0249,0.16736,0.98221,-0.56,0.228,-0.228,7145,76531,108911
9.39,939,8836,1,0,0,0,818.71033,888.29041,1583.55713,1713.94348,-0.0238,0.16773,0.98209,-0.665,0.28,-0.123,7145,76531,108911
9.4,940,8837,1,0,0,0,818.71033,888.29041,1583.63342,1714.09607,-0.02368,0.1659,0.98575,-0.665,0.21,-0.175,7147,76529,108914
9.41,941,8838,1,0,0,0,818.71033,888.29041,1583.70972,1714.01978,-0.02612,0.16639,0.98758,-0.385,0.14,-0.105,7147,76529,108914
9.42,942,8839,1,0,0,0,818.71033,888.29041,1583.70972,1714.09607,-0.02441,0.16688,0.98428,-0.298,0.175,-0.228,7146,76535,108918
9.43,943,8840,1,0,0,0,818.63403,888.29041,1583.8623,1714.01978,-0.02393,0.16822,0.98233,-0.245,0.053,-0.35,7146,76535,108918
9.44,944,8841,1,0,0,0,818.63403,888.29041,1583.40454,1713.94348,-0.02246,0.16895,0.98025,-0.14,0.088,-0.228,7144,76532,108910
9.45,945,8842,1,0,0,0,818.63403,888.29041,1583.55713,1714.01978,-0.02417,0.1681,0.98404,-0.613,0.35,-0.193,7144,76532,108910
9.46,946,8843,1,0,0,0,818.63403,888.29041,1583.48083,1714.32495,-0.02393,0.16749,0.98453,-0.665,0.35,-0.298,7146,76532,108911
9.47,947,8844,1,0,0,0,818.63403,888.29041,1583.63342,1713.7146,-0.026,0.16688,0.98526,-0.718,0.298,-0.158,7146,76532,108911
9.48,948,8845,1,0,0,0,818.63403,888.21411,1583.70972,1713.94348,-0.02405,0.16651,0.98392,-0.385,0.07,-0.053,7148,76529,108916
9.49,949,8846,1,0,0,0,818.63403,888.21411,1583.32825,1714.09607,-0.02307,0.16858,0.98404,-0.105,0.035,0.035,7148,76529,108916
9.5,950,8847,1,0,0,0,818.63403,888.21411,1583.40454,1713.86719,-0.02307,0.17029,0.98306,-0.14,0.088,-0.035,7147,76535,108916
9.51,951,8848,1,0,0,0,818.63403,888.21411,1583.55713,1713.94348,-0.02527,0.17103,0.98453,-0.735,0.228,-0.053,7147,76535,108916
9.52,952,8849,1,0,0,0,818.63403,888.21411,1583.63342,1714.40125,-0.02393,0.17042,0.98355,-0.963,0.245,-0.105,7150,76533,108923
9.53,953,8850,1,0,0,0,818.63403,888.21411,1583.63342,1713.94348,-0.02405,0.16968,0.98379,-0.998,0.228,0.07,7150,76533,108923
9.54,954,8851,1,0,0,0,818.63403,888.21411,1583.63342,1713.94348,-0.02368,0.16956,0.98428,-0.84,0.263,-0.053,7150,76532,108918
9.55,955,8852,1,0,0,0,818.63403,888.21411,1583.55713,1714.32495,-0.02271,0.16846,0.98257,-0.823,0.245,0.21,7150,76532,108918
9.56,956,8853,1,0,0,0,818.63403,888.21411,1583.63342,1714.09607,-0.02319,0.167,0.98538,-0.893,0.175,0.088,7151,76530,108916
9.57,957,8854,1,0,0,0,818.63403,888.21411,1583.63342,1713.86719,-0.02246,0.16675,0.98428,-0.788,0.158,0.193,7151,76530,108916
9.58,958,8855,1,0,0,0,818.63403,888.21411,1583.8623,1714.01978,-0.02271,0.16761,0.98367,-0.56,0.193,0.018,7147,76529,108914
