Time(s),SampleIndex,Seq,ValidFlag,InterpFlag,GapLen,MissingBefore,Uc1(mV),Uc2(mV),Ut1(mV),Ut2(mV),AccX(g),AccY(g),AccZ(g),GyroX(dps),GyroY(dps),GyroZ(dps),PPG_Green,PPG_Red,PPG_IR
0.0,0,9842,1,0,0,0,825.80566,907.2113,1598.43445,1751.17493,-0.08435,-0.09558,0.9921,-0.91,0.438,-0.49,6166,69680,100594
0.01,1,9843,1,0,0,0,825.80566,907.2113,1598.35815,1751.09863,-0.0846,-0.09204,0.99271,-0.77,0.403,-0.56,6166,69680,100594
0.02,2,9844,1,0,0,0,825.80566,907.2113,1598.73962,1751.25122,-0.0846,-0.08936,0.99344,-0.525,0.298,-0.665,6168,69680,100598
0.03,3,9845,1,0,0,0,825.80566,907.05872,1598.51074,1751.02234,-0.08399,-0.08875,0.996,-0.525,0.193,-0.718,6168,69681,100603
0.04,4,9846,1,0,0,0,825.80566,907.05872,1598.35815,1751.17493,-0.0824,-0.08777,0.99356,-0.508,0.21,-0.77,6168,69681,100603
0.05,5,9847,1,0,0,0,825.80566,907.05872,1598.89221,1751.25122,-0.08399,-0.08716,0.99527,-0.875,0.21,-0.858,6168,69681,100603
0.06,6,9848,1,0,0,0,825.80566,907.05872,1598.51074,1751.17493,-0.08179,-0.08948,0.99075,-0.875,0.315,-0.805,6170,69677,100603
0.07,7,9849,1,0,0,0,825.80566,907.05872,1598.58704,1751.17493,-0.08106,-0.08802,0.9921,-0.893,0.368,-0.858,6170,69677,100603
0.08,8,9850,1,0,0,0,826.03455,907.05872,1598.89221,1751.09863,-0.08142,-0.08545,0.99307,-1.4,0.385,-0.665,6175,69675,100605
0.09,9,9851,1,0,0,0,826.03455,907.05872,1598.28186,1751.25122,-0.08142,-0.08509,0.99271,-1.698,0.525,-0.595,6175,69675,100605
0.1,10,9852,1,0,0,0,826.03455,907.05872,1598.43445,1751.25122,-0.0813,-0.08509,0.99185,-1.995,0.508,-0.403,6176,69677,100603
0.11,11,9853,1,0,0,0,826.03455,907.05872,1598.73962,1751.17493,-0.0813,-0.08594,0.99332,-2.398,0.595,-0.263,6176,69677,100603
0.12,12,9854,1,0,0,0,826.03455,907.05872,1598.43445,1751.17493,-0.08081,-0.08789,0.99417,-2.835,0.735,-0.175,6181,69680,100612
0.13,13,9855,1,0,0,0,826.03455,906.98242,1598.51074,1751.02234,-0.08338,-0.09119,0.99515,-2.958,0.858,-0.07,6181,69680,100612
0.14,14,9856,1,0,0,0,826.03455,906.98242,1598.66333,1751.17493,-0.08545,-0.09033,0.99539,-2.923,0.91,-0.14,6184,69680,100613
0.15,15,9857,1,0,0,0,826.03455,906.98242,1598.35815,1751.02234,-0.08875,-0.08692,0.99942,-2.853,0.823,-0.175,6184,69680,100613
0.16,16,9858,1,0,0,0,826.03455,906.98242,1598.43445,1750.94604,-0.08826,-0.08496,0.98428,-3.22,0.613,-0.158,6185,69680,100612
0.17,17,9859,1,0,0,0,826.03455,906.98242,1598.51074,1751.09863,-0.08545,-0.10193,0.98563,-3.92,0.508,-0.193,6185,69680,100612
0.18,18,9860,1,0,0,0,825.88196,906.98242,1598.35815,1751.09863,-0.08301,-0.0896,0.9971,-2.503,0.508,-0.473,6188,69681,100615
0.19,19,9861,1,0,0,0,825.88196,906.98242,1598.12927,1751.25122,-0.08582,-0.09375,0.99686,-2.433,0.823,-0.42,6188,69681,100615
0.2,20,9862,1,0,0,0,825.88196,906.98242,1598.35815,1751.09863,-0.08606,-0.09619,0.99612,-2.52,0.648,-0.28,6190,69680,100608
0.21,21,9863,1,0,0,0,825.88196,906.98242,1598.43445,1750.86975,-0.0835,-0.0907,0.991,-2.433,0.543,-0.315,6190,69680,100608
0.22,22,9864,1,0,0,0,825.88196,906.98242,1598.35815,1751.02234,-0.0835,-0.09241,0.99014,-2.398,0.508,-0.21,6192,69682,100620
0.23,23,9865,1,0,0,0,825.88196,907.2876,1598.66333,1751.02234,-0.08545,-0.09436,0.99332,-2.013,0.56,-0.56,6192,69682,100620
0.24,24,9866,1,0,0,0,825.88196,907.2876,1598.28186,1750.86975,-0.08741,-0.094,0.99405,-1.978,0.595,-0.473,6194,69683,100618
0.25,25,9867,1,0,0,0,825.88196,907.2876,1598.28186,1750.86975,-0.08643,-0.09485,0.99332,-1.943,0.368,-0.35,6194,69683,100618
0.26,26,9868,1,0,0,0,825.88196,907.2876,1598.66333,1751.09863,-0.08594,-0.09571,0.99173,-1.838,0.193,-0.158,6198,69684,100616
0.27,27,9869,1,0,0,0,825.88196,907.2876,1598.43445,1750.94604,-0.08277,-0.09546,0.99026,-1.75,0.053,-0.245,6198,69684,100616
0.28,28,9870,1,0,0,0,825.88196,907.2876,1598.43445,1751.02234,-0.08081,-0.09363,0.99246,-1.61,0.123,-0.385,6196,69683,100604
0.29,29,9871,1,0,0,0,825.88196,907.2876,1598.28186,1750.94604,-0.08081,-0.09363,0.99405,-1.365,0.298,-0.385,6196,69683,100604
0.3,30,9872,1,0,0,0,825.88196,907.2876,1598.43445,1750.94604,-0.08264,-0.10254,0.99576,-0.875,0.28,-0.28,6195,69674,100596
0.31,31,9873,1,0,0,0,825.88196,907.2876,1598.35815,1751.09863,-0.08118,-0.09143,0.99612,-0.63,0.28,-0.298,6195,69674,100596
0.32,32,9874,1,0,0,0,825.88196,907.2876,1598.81592,1751.40381,-0.0824,-0.09412,0.99002,-0.98,0.648,0.105,6189,69676,100587
0.33,33,9875,1,0,0,0,825.88196,906.90613,1598.43445,1750.94604,-0.08435,-0.08704,0.99136,-0.788,0.84,-0.21,6189,69676,100587
0.34,34,9876,1,0,0,0,825.88196,906.90613,1598.28186,1751.02234,-0.08386,-0.07556,0.9921,-1.278,0.595,-0.333,6184,69673,100584
0.35,35,9877,1,0,0,0,825.88196,906.90613,1598.43445,1751.32751,-0.08716,-0.10205,0.99271,-2.958,0.683,0.105,6184,69673,100584
0.36,36,9878,1,0,0,0,825.88196,906.90613,1598.20557,1751.17493,-0.0846,-0.10364,0.99161,-2.695,0.49,0.123,6181,69670,100574
0.37,37,9879,1,0,0,0,825.88196,906.90613,1598.28186,1751.32751,-0.08411,-0.10022,0.99124,-1.925,0.193,-0.035,6181,69670,100574
0.38,38,9880,1,0,0,0,825.88196,906.90613,1598.58704,1750.94604,-0.08496,-0.10096,0.99344,-1.47,0.298,-0.018,6177,69668,100566
0.39,39,9881,1,0,0,0,825.88196,906.90613,1597.90039,1750.94604,-0.08594,-0.10047,0.9938,-0.998,0.455,-0.228,6177,69668,100566
0.4,40,9882,1,0,0,0,825.88196,906.90613,1598.20557,1751.17493,-0.08374,-0.09095,0.99246,-0.49,0.333,-0.123,6172,69664,100561
0.41,41,9883,1,0,0,0,825.88196,906.90613,1598.58704,1751.17493,-0.0835,-0.09033,0.99222,-0.7,0.193,-0.245,6172,69664,100561
0.42,42,9884,1,0,0,0,825.88196,906.90613,1598.28186,1751.02234,-0.08386,-0.09314,0.99527,-1.033,0.228,-0.35,6172,69659,100565
0.43,43,9885,1,0,0,0,825.88196,906.82983,1598.51074,1750.94604,-0.08411,-0.09558,0.99332,-1.05,0.28,-0.333,6172,69659,100565
0.44,44,9886,1,0,0,0,825.88196,906.82983,1598.35815,1750.94604,-0.08374,-0.09619,0.99295,-0.98,0.385,-0.28,6167,69658,100559
0.45,45,9887,1,0,0,0,825.88196,906.82983,1598.28186,1752.70081,-0.08679,-0.09644,0.9938,-0.578,0.35,-0.298,6167,69658,100559
0.46,46,9888,1,0,0,0,825.88196,906.82983,1598.66333,1750.94604,-0.08557,-0.0951,0.99283,-0.42,0.368,-0.298,6161,69653,100554
0.47,47,9889,1,0,0,0,825.88196,906.82983,1598.73962,1751.63269,-0.08386,-0.0929,0.99283,-0.35,0.21,-0.263,6161,69653,100554
0.48,48,9890,1,0,0,0,825.95825,906.82983,1598.43445,1751.09863,-0.08289,-0.09522,0.99417,-0.403,0.193,-0.403,6159,69647,100551
0.49,49,9891,1,0,0,0,825.95825,906.82983,1598.20557,1750.86975,-0.08338,-0.09449,0.99466,-0.438,0.28,-0.403,6159,69647,100551
0.5,50,9892,1,0,0,0,825.95825,906.82983,1598.73962,1751.02234,-0.0846,-0.09668,0.99124,-0.403,0.263,-0.858,6159,69653,100559
0.51,51,9893,1,0,0,0,825.95825,906.82983,1598.51074,1750.94604,-0.08557,-0.09619,0.99234,0.158,0.368,-0.77,6159,69653,100559
0.52,52,9894,1,0,0,0,825.95825,906.82983,1598.51074,1750.86975,-0.08533,-0.09412,0.99332,0.455,0.193,-0.613,6154,69657,100563
0.53,53,9895,1,0,0,0,825.95825,906.90613,1598.66333,1751.02234,-0.08606,-0.09143,0.99319,0.508,0.175,-0.595,6154,69657,100563
0.54,54,9896,1,0,0,0,825.95825,906.90613,1598.35815,1750.94604,-0.08521,-0.09082,0.9921,0.315,0.07,-0.63,6153,69652,100563
0.55,55,9897,1,0,0,0,825.95825,906.90613,1598.43445,1750.94604,-0.08545,-0.09058,0.99307,0.263,-0.035,-0.543,6153,69652,100563
0.56,56,9898,1,0,0,0,825.95825,906.90613,1598.81592,1751.25122,-0.08362,-0.09143,0.99307,0.14,-0.07,-0.578,6155,69649,100564
0.57,57,9899,1,0,0,0,825.95825,906.90613,1598.43445,1750.94604,-0.08216,-0.09021,0.99319,0.123,-0.035,-0.595,6155,69649,100564
0.58,58,9900,1,0,0,0,825.88196,906.90613,1598.51074,1750.86975,-0.08289,-0.09082,0.99307,0.105,0.105,-0.525,6152,69647,100565
0.59,59,9901,1,0,0,0,825.88196,906.90613,1598.43445,1751.09863,-0.08069,-0.09046,0.99271,-0.105,0.175,-0.683,6152,69647,100565
0.6,60,9902,1,0,0,0,825.88196,906.90613,1598.43445,1751.09863,-0.0813,-0.08875,0.99283,-0.263,0.123,-0.595,6150,69648,100569
0.61,61,9903,1,0,0,0,825.88196,906.90613,1598.51074,1751.09863,-0.08386,-0.08228,0.99551,-1.365,0.28,-0.455,6150,69648,100569
0.62,62,9904,1,0,0,0,825.88196,906.90613,1598.58704,1751.25122,-0.08509,-0.09217,0.99454,-2.188,0.263,-0.21,6150,69644,100571
0.63,63,9905,1,0,0,0,825.88196,906.90613,1598.51074,1751.02234,-0.08484,-0.09656,0.99405,-1.698,0.333,-0.298,6150,69644,100571
0.64,64,9906,1,0,0,0,825.88196,906.90613,1598.51074,1751.09863,-0.08679,-0.09229,0.99576,-0.7,0.245,-0.263,6153,69644,100564
0.65,65,9907,1,0,0,0,825.88196,906.90613,1598.66333,1751.40381,-0.0857,-0.08704,0.99295,-0.368,0.14,-0.438,6153,69644,100564
0.66,66,9908,1,0,0,0,825.88196,906.90613,1598.51074,1751.09863,-0.08325,-0.09009,0.99149,-0.49,0.053,-0.28,6150,69646,100572
0.67,67,9909,1,0,0,0,825.88196,906.90613,1598.51074,1751.4801,-0.08252,-0.08887,0.99173,-0.963,0.07,-0.28,6150,69646,100572
0.68,68,9910,1,0,0,0,826.03455,906.90613,1598.81592,1751.40381,-0.08277,-0.0907,0.991,-1.225,0.193,-0.333,6147,69647,100571
0.69,69,9911,1,0,0,0,826.03455,906.90613,1598.28186,1751.32751,-0.08435,-0.09082,0.99612,-1.12,0.14,-0.35,6147,69647,100571
0.7,70,9912,1,0,0,0,826.03455,906.90613,1598.51074,1751.09863,-0.08289,-0.09131,0.99527,-1.12,0.123,-0.298,6149,69645,100570
0.71,71,9913,1,0,0,0,826.03455,906.90613,1598.58704,1751.02234,-0.08032,-0.08643,0.9921,-0.735,0.193,-0.263,6149,69645,100570
0.72,72,9914,1,0,0,0,826.03455,906.90613,1598.51074,1751.02234,-0.08081,-0.08655,0.99454,-0.875,0.28,-0.263,6147,69643,100574
0.73,73,9915,1,0,0,0,826.03455,906.90613,1598.43445,1751.09863,-0.08277,-0.08875,0.99576,-1.103,0.385,-0.175,6147,69643,100574
0.74,74,9916,1,0,0,0,826.03455,906.90613,1598.66333,1751.4801,-0.08228,-0.08948,0.99368,-1.348,0.438,-0.158,6149,69643,100579
0.75,75,9917,1,0,0,0,826.03455,906.90613,1598.43445,1750.86975,-0.08252,-0.08826,0.99551,-1.365,0.438,-0.088,6149,69643,100579
0.76,76,9918,1,0,0,0,826.03455,906.90613,1598.43445,1751.02234,-0.08338,-0.08802,0.99466,-1.47,0.403,-0.088,6149,69645,100575
0.77,77,9919,1,0,0,0,826.03455,906.90613,1598.73962,1751.02234,-0.08155,-0.09168,0.99063,-1.488,0.368,0.088,6149,69645,100575
0.78,78,9920,1,0,0,0,825.88196,906.90613,1598.35815,1750.94604,-0.08325,-0.09131,0.9938,-1.453,0.508,0.088,6153,69643,100580
0.79,79,9921,1,0,0,0,825.88196,906.90613,1598.20557,1750.86975,-0.0846,-0.08985,0.996,-1.435,0.403,0.053,6153,69643,100580
0.8,80,9922,1,0,0,0,825.88196,906.90613,1598.58704,1750.86975,-0.0835,-0.08972,0.99368,-1.33,0.403,-0.07,6153,69642,100580
0.81,81,9923,1,0,0,0,825.88196,906.90613,1598.43445,1751.02234,-0.08411,-0.08924,0.99246,-1.225,0.298,0.088,6153,69642,100580
0.82,82,9924,1,0,0,0,825.88196,906.90613,1598.51074,1750.94604,-0.08411,-0.08704,0.99466,-1.505,0.35,0.175,6152,69644,100581
0.83,83,9925,1,0,0,0,825.88196,907.2113,1598.81592,1751.17493,-0.0835,-0.0885,0.9949,-1.733,0.315,0.263,6152,69644,100581
0.84,84,9926,1,0,0,0,825.88196,907.2113,1598.43445,1751.02234,-0.0824,-0.09021,0.99149,-1.925,0.438,0.315,6153,69640,100577
0.85,85,9927,1,0,0,0,825.88196,907.2113,1598.43445,1750.94604,-0.0813,-0.09046,0.99271,-2.083,0.403,0.263,6153,69640,100577
0.86,86,9928,1,0,0,0,825.88196,907.2113,1598.58704,1751.25122,-0.08191,-0.0918,0.99442,-1.978,0.438,0.28,6156,69641,100579
0.87,87,9929,1,0,0,0,825.88196,907.2113,1598.35815,1751.02234,-0.08496,-0.0907,0.99612,-1.995,0.473,0.21,6156,69641,100579
0.88,88,9930,1,0,0,0,825.88196,907.2113,1598.51074,1751.09863,-0.08557,-0.09217,0.99319,-1.838,0.543,0.333,6156,69641,100580
0.89,89,9931,1,0,0,0,825.88196,907.2113,1598.51074,1751.40381,-0.08509,-0.0929,0.99332,-1.61,0.473,0.35,6156,69641,100580
0.9,90,9932,1,0,0,0,825.88196,907.2113,1598.20557,1751.02234,-0.08509,-0.09192,0.99271,-1.523,0.385,0.368,6158,69643,100584
0.91,91,9933,1,0,0,0,825.88196,907.2113,1598.28186,1751.02234,-0.08582,-0.09217,0.99307,-1.348,0.315,0.193,6158,69643,100584
0.92,92,9934,1,0,0,0,825.88196,907.2113,1598.58704,1751.32751,-0.08484,-0.09375,0.99356,-1.26,0.298,0.018,6161,69646,100580
0.93,93,9935,1,0,0,0,825.88196,906.82983,1598.43445,1750.86975,-0.0835,-0.09546,0.99258,-1.05,0.298,0.088,6161,69646,100580
0.94,94,9936,1,0,0,0,825.88196,906.82983,1598.20557,1750.94604,-0.08313,-0.09534,0.99344,-0.823,0.21,-0.105,6163,69644,100583
0.95,95,9937,1,0,0,0,825.88196,906.82983,1598.43445,1751.25122,-0.08203,-0.09595,0.99161,-0.56,0.158,-0.123,6163,69644,100583
0.96,96,9938,1,0,0,0,825.88196,906.82983,1598.20557,1750.86975,-0.08386,-0.094,0.99295,-0.228,0.28,-0.21,6163,69641,100589
0.97,97,9939,1,0,0,0,825.88196,906.82983,1598.28186,1751.09863,-0.08362,-0.09119,0.99344,-0.14,0.21,-0.245,6163,69641,100589
0.98,98,9940,1,0,0,0,826.03455,906.82983,1598.81592,1751.02234,-0.08362,-0.08972,0.99197,0.105,0.053,-0.403,6165,69644,100592
0.99,99,9941,1,0,0,0,826.03455,906.82983,1598.20557,1751.09863,-0.08509,-0.08814,0.99197,0.035,0.228,-0.438,6165,69644,100592
1.0,100,9942,1,0,0,0,826.03455,906.82983,1598.43445,1751.02234,-0.08423,-0.08704,0.99368,-0.158,0.105,-0.385,6164,69643,100597
1.01,101,9943,1,0,0,0,826.03455,906.82983,1598.66333,1751.09863,-0.08289,-0.08814,0.99515,-0.28,0.053,-0.403,6164,69643,100597
1.02,102,9944,1,0,0,0,826.03455,906.82983,1598.43445,1751.02234,-0.08179,-0.08802,0.99393,-0.333,0.123,-0.263,6170,69643,100602
1.03,103,9945,1,0,0,0,826.03455,906.90613,1598.51074,1750.94604,-0.08142,-0.0885,0.99515,-0.718,0.193,-0.385,6170,69643,100602
1.04,104,9946,1,0,0,0,826.03455,906.90613,1598.43445,1751.02234,-0.08032,-0.08802,0.99466,-0.753,0.21,-0.438,6168,69643,100604
1.05,105,9947,1,0,0,0,826.03455,906.90613,1598.51074,1750.94604,-0.08008,-0.08765,0.99356,-0.945,0.333,-0.578,6168,69643,100604
1.06,106,9948,1,0,0,0,826.03455,906.90613,1598.43445,1750.94604,-0.08008,-0.08838,0.99307,-1.12,0.35,-0.455,6170,69643,100608
1.07,107,9949,1,0,0,0,826.03455,906.90613,1598.73962,1751.25122,-0.08179,-0.08802,0.99356,-1.383,0.56,-0.403,6170,69643,100608
1.08,108,9950,1,0,0,0,825.80566,906.90613,1598.35815,1751.02234,-0.08411,-0.08765,0.99466,-1.663,0.49,-0.525,6171,69647,100612
1.09,109,9951,1,0,0,0,825.80566,906.90613,1598.28186,1751.02234,-0.08399,-0.09021,0.99307,-1.593,0.525,-0.403,6171,69647,100612
1.1,110,9952,1,0,0,0,825.80566,906.90613,1598.51074,1750.94604,-0.08582,-0.09217,0.99295,-1.505,0.508,-0.49,6175,69646,100613
1.11,111,9953,1,0,0,0,825.80566,906.90613,1598.43445,1750.86975,-0.08545,-0.08924,0.99356,-1.453,0.508,-0.403,6175,69646,100613
1.12,112,9954,1,0,0,0,825.80566,906.90613,1598.43445,1751.02234,-0.0857,-0.09021,0.99246,-1.295,0.49,-0.21,6179,69647,100618
1.13,113,9955,1,0,0,0,825.80566,906.98242,1598.51074,1750.79346,-0.08264,-0.0907,0.99087,-1.33,0.368,-0.49,6179,69647,100618
1.14,114,9956,1,0,0,0,825.80566,906.98242,1598.35815,1750.86975,-0.08411,-0.08887,0.99527,-1.085,0.193,-0.403,6177,69647,100624
1.15,115,9957,1,0,0,0,825.80566,906.98242,1598.43445,1751.02234,-0.08216,-0.08948,0.99429,-1.208,0.193,-0.508,6177,69647,100624
1.16,116,9958,1,0,0,0,825.80566,906.98242,1598.66333,1751.32751,-0.08325,-0.08826,0.99368,-1.365,0.298,-0.578,6180,69647,100620
1.17,117,9959,1,0,0,0,825.80566,906.98242,1598.35815,1751.02234,-0.08118,-0.08741,0.99332,-1.278,0.298,-0.49,6180,69647,100620
1.18,118,9960,1,0,0,0,825.88196,906.98242,1598.43445,1751.02234,-0.08057,-0.08667,0.99319,-1.523,0.42,-0.42,6183,69646,100625
1.19,119,9961,1,0,0,0,825.88196,906.98242,1598.35815,1751.32751,-0.08216,-0.08716,0.9938,-1.698,0.49,-0.193,6183,69646,100625
1.2,120,9962,1,0,0,0,825.88196,906.98242,1598.35815,1751.09863,-0.08228,-0.08728,0.99478,-1.873,0.508,-0.105,6183,69646,100627
1.21,121,9963,1,0,0,0,825.88196,906.98242,1598.43445,1751.02234,-0.08179,-0.08753,0.99258,-2.24,0.543,-0.175,6183,69646,100627
1.22,122,9964,1,0,0,0,825.88196,906.98242,1598.43445,1751.17493,-0.08386,-0.08692,0.99478,-2.503,0.63,-0.035,6191,69646,100630
1.23,123,9965,1,0,0,0,825.88196,906.90613,1598.43445,1750.86975,-0.08496,-0.08997,0.99393,-2.748,0.7,0.228,6191,69646,100630
1.24,124,9966,1,0,0,0,825.88196,906.90613,1598.28186,1750.86975,-0.08277,-0.0907,0.991,-2.713,0.7,0.105,6190,69644,100626
1.25,125,9967,1,0,0,0,825.88196,906.90613,1598.58704,1751.32751,-0.08277,-0.09082,0.9921,-2.853,0.578,0.193,6190,69644,100626
1.26,126,9968,1,0,0,0,825.88196,906.90613,1598.35815,1750.94604,-0.08277,-0.09241,0.9938,-2.818,0.543,0.158,6192,69646,100628
1.27,127,9969,1,0,0,0,825.88196,906.90613,1598.35815,1750.79346,-0.08216,-0.09351,0.99368,-2.818,0.63,0.123,6192,69646,100628
1.28,128,9970,1,0,0,0,825.88196,906.90613,1598.73962,1751.02234,-0.08399,-0.09412,0.99283,-2.59,0.683,0.088,6193,69647,100629
1.29,129,9971,1,0,0,0,825.88196,906.90613,1598.12927,1750.71716,-0.08509,-0.09497,0.99332,-2.573,0.63,-0.07,6193,69647,100629
1.3,130,9972,1,0,0,0,825.88196,906.90613,1598.43445,1750.79346,-0.08521,-0.09632,0.99124,-2.345,0.63,-0.123,6194,69649,100626
1.31,131,9973,1,0,0,0,825.88196,906.90613,1598.51074,1750.71716,-0.08484,-0.09571,0.99063,-2.065,0.595,-0.21,6194,69649,100626
1.32,132,9974,1,0,0,0,825.88196,906.90613,1598.28186,1750.64087,-0.08313,-0.0929,0.99039,-1.785,0.473,-0.158,6198,69644,100627
1.33,133,9975,1,0,0,0,825.88196,906.90613,1598.28186,1750.94604,-0.08252,-0.09119,0.99417,-1.855,0.403,0.018,6198,69644,100627
1.34,134,9976,1,0,0,0,825.88196,906.90613,1598.58704,1750.86975,-0.08325,-0.09095,0.99539,-2.1,0.525,-0.035,6199,69645,100627
1.35,135,9977,1,0,0,0,825.88196,906.90613,1598.43445,1750.71716,-0.08252,-0.0929,0.99222,-2.223,0.613,-0.088,6199,69645,100627
1.36,136,9978,1,0,0,0,825.88196,906.90613,1598.51074,1750.71716,-0.08509,-0.09363,0.99222,-2.223,0.7,-0.123,6201,69646,100626
1.37,137,9979,1,0,0,0,825.88196,906.90613,1598.58704,1751.02234,-0.08692,-0.094,0.99588,-2.1,0.63,-0.07,6201,69646,100626
1.38,138,9980,1,0,0,0,825.95825,906.90613,1598.35815,1750.86975,-0.08679,-0.09497,0.99368,-1.75,0.403,-0.053,6203,69645,100623
1.39,139,9981,1,0,0,0,825.95825,906.90613,1598.43445,1750.86975,-0.08692,-0.09522,0.99197,-1.68,0.333,-0.053,6203,69645,100623
1.4,140,9982,1,0,0,0,825.95825,906.90613,1598.58704,1750.86975,-0.08448,-0.09546,0.99332,-1.488,0.263,-0.088,6205,69641,100621
1.41,141,9983,1,0,0,0,825.95825,906.90613,1598.51074,1750.86975,-0.08264,-0.0968,0.9938,-1.348,0.053,-0.018,6205,69641,100621
1.42,142,9984,1,0,0,0,825.95825,906.90613,1598.43445,1750.86975,-0.08167,-0.09693,0.99393,-1.068,0.228,-0.123,6200,69635,100602
1.43,143,9985,1,0,0,0,825.95825,907.05872,1598.81592,1750.94604,-0.0835,-0.09742,0.99466,-0.49,0.368,-0.403,6200,69635,100602
1.44,144,9986,1,0,0,0,825.95825,907.05872,1598.28186,1750.94604,-0.08435,-0.09619,0.99539,-0.49,0.368,-0.403,6194,69632,100595
1.45,145,9987,1,0,0,0,825.95825,907.05872,1598.28186,1750.94604,-0.08411,-0.0968,0.99197,0.105,0.315,-0.35,6194,69632,100595
1.46,146,9988,1,0,0,0,825.95825,907.05872,1598.35815,1751.09863,-0.08606,-0.09485,0.99283,0.385,0.28,-0.42,6188,69629,100586
1.47,147,9989,1,0,0,0,825.95825,907.05872,1598.28186,1750.79346,-0.08728,-0.09375,0.9921,0.49,0.245,-0.805,6188,69629,100586
1.48,148,9990,1,0,0,0,825.72937,907.05872,1598.43445,1750.79346,-0.08887,-0.09217,0.99393,0.648,0.07,-0.543,6184,69627,100582
1.49,149,9991,1,0,0,0,825.72937,907.05872,1598.28186,1750.94604,-0.08692,-0.09156,0.99405,0.578,-0.105,-0.595,6184,69627,100582
1.5,150,9992,1,0,0,0,825.72937,907.05872,1598.28186,1750.79346,-0.08313,-0.09436,0.99112,0.718,-0.263,-0.578,6180,69627,100587
1.51,151,9993,1,0,0,0,825.72937,907.05872,1598.20557,1750.79346,-0.08252,-0.09278,0.9921,0.875,-0.21,-0.665,6180,69627,100587
1.52,152,9994,1,0,0,0,825.72937,907.05872,1598.66333,1751.17493,-0.08216,-0.08972,0.99332,0.998,-0.14,-0.788,6176,69618,100588
1.53,153,9995,1,0,0,0,825.72937,906.75354,1598.51074,1750.86975,-0.08216,-0.08875,0.99429,0.963,-0.105,-0.63,6176,69618,100588
1.54,154,9996,1,0,0,0,825.72937,906.75354,1598.05298,1750.79346,-0.07923,-0.08765,0.99307,0.718,-0.088,-0.578,6171,69616,100590
1.55,155,9997,1,0,0,0,825.72937,906.75354,1598.51074,1750.94604,-0.08094,-0.08435,0.99234,-0.158,0.21,-0.613,6171,69616,100590
1.56,156,9998,1,0,0,0,825.72937,906.75354,1598.43445,1750.86975,-0.08106,-0.08081,0.99185,-1.015,0.123,-0.49,6165,69613,100585
1.57,157,9999,1,0,0,0,825.72937,906.75354,1598.43445,1750.79346,-0.08313,-0.08924,0.99649,-2.31,0.21,-0.333,6165,69613,100585
1.58,158,10000,1,0,0,0,826.11084,906.75354,1598.89221,1751.02234,-0.08423,-0.09595,0.99527,-1.943,0.385,-0.42,6161,69609,100575
1.59,159,10001,1,0,0,0,826.11084,906.75354,1598.28186,1750.79346,-0.08399,-0.09583,0.99246,-1.155,0.298,-0.473,6161,69609,100575
1.6,160,10002,1,0,0,0,826.11084,906.75354,1598.51074,1750.86975,-0.08557,-0.08484,0.99271,-0.245,0.175,-0.175,6158,69606,100572
1.61,161,10003,1,0,0,0,826.11084,906.75354,1598.81592,1751.02234,-0.08606,-0.08594,0.99466,-0.525,0.158,-0.123,6158,69606,100572
1.62,162,10004,1,0,0,0,826.11084,906.75354,1598.51074,1750.86975,-0.08374,-0.09058,0.99429,-0.998,-0.07,-0.158,6152,69605,100567
1.63,163,10005,1,0,0,0,826.11084,906.90613,1598.43445,1750.94604,-0.08374,-0.09229,0.99393,-1.33,-0.14,-0.21,6152,69605,100567
1.64,164,10006,1,0,0,0,826.11084,906.90613,1598.51074,1750.94604,-0.08313,-0.09265,0.99368,-1.138,0.035,-0.403,6149,69602,100566
1.65,165,10007,1,0,0,0,826.11084,906.90613,1598.51074,1750.94604,-0.0835,-0.09082,0.99222,-0.805,0.175,-0.613,6149,69602,100566
1.66,166,10008,1,0,0,0,826.11084,906.90613,1598.43445,1750.86975,-0.08216,-0.08838,0.99136,-0.473,0.035,-0.543,6149,69602,100564
1.67,167,10009,1,0,0,0,826.11084,906.90613,1598.81592,1751.32751,-0.08289,-0.08472,0.99405,-0.42,0.175,-0.385,6149,69602,100564
1.68,168,10010,1,0,0,0,825.95825,906.90613,1598.43445,1750.86975,-0.08118,-0.08203,0.99356,-0.49,0.14,-0.385,6147,69599,100563
1.69,169,10011,1,0,0,0,825.95825,906.90613,1598.12927,1750.86975,-0.07984,-0.08203,0.99112,-0.56,0.175,-0.07,6147,69599,100563
1.7,170,10012,1,0,0,0,825.95825,906.90613,1598.73962,1751.02234,-0.07935,-0.08191,0.99124,-0.858,0.105,-0.105,6145,69596,100560
1.71,171,10013,1,0,0,0,825.95825,906.90613,1598.35815,1750.86975,-0.07825,-0.08252,0.99503,-1.593,0.123,0.14,6145,69596,100560
1.72,172,10014,1,0,0,0,825.95825,906.90613,1598.43445,1751.09863,-0.07642,-0.08411,0.99307,-2.013,0.315,0.245,6141,69593,100554
1.73,173,10015,1,0,0,0,825.95825,906.82983,1598.51074,1750.71716,-0.07776,-0.08557,0.99576,-2.503,0.473,0.035,6141,69593,100554
1.74,174,10016,1,0,0,0,825.95825,906.82983,1598.28186,1751.09863,-0.07996,-0.09131,0.99222,-2.66,0.683,0.245,6142,69587,100544
1.75,175,10017,1,0,0,0,825.95825,906.82983,1598.43445,1750.86975,-0.08338,-0.08911,0.99393,-2.853,0.823,0.21,6142,69587,100544
1.76,176,10018,1,0,0,0,825.95825,906.82983,1598.81592,1751.25122,-0.08411,-0.09473,0.99356,-2.555,0.788,0.14,6142,69590,100541
1.77,177,10019,1,0,0,0,825.95825,906.82983,1598.43445,1751.4801,-0.08838,-0.09571,0.99283,-2.415,0.753,-0.035,6142,69590,100541
1.78,178,10020,1,0,0,0,825.88196,906.82983,1598.66333,1751.17493,-0.08789,-0.09265,0.99124,-1.873,0.56,0.105,6142,69588,100541
1.79,179,10021,1,0,0,0,825.88196,906.82983,1598.35815,1751.32751,-0.08741,-0.09095,0.99283,-1.523,0.403,0.228,6142,69588,100541
1.8,180,10022,1,0,0,0,825.88196,906.82983,1598.35815,1750.94604,-0.08631,-0.09046,0.99368,-1.243,0.298,0.193,6138,69588,100535
1.81,181,10023,1,0,0,0,825.88196,906.82983,1598.43445,1750.94604,-0.08338,-0.08838,0.99295,-1.453,0.28,0.158,6138,69588,100535
1.82,182,10024,1,0,0,0,825.88196,906.82983,1598.51074,1751.02234,-0.08386,-0.09033,0.9938,-1.383,0.21,0.158,6138,69586,100532
1.83,183,10025,1,0,0,0,825.88196,906.90613,1598.58704,1750.94604,-0.08252,-0.09204,0.9938,-1.54,0.21,0.035,6138,69586,100532
1.84,184,10026,1,0,0,0,825.88196,906.90613,1598.28186,1750.79346,-0.08118,-0.09278,0.99258,-1.488,0.28,0.14,6140,69585,100533
1.85,185,10027,1,0,0,0,825.88196,906.90613,1598.66333,1751.02234,-0.08155,-0.09314,0.99344,-1.12,0.228,0.07,6140,69585,100533
1.86,186,10028,1,0,0,0,825.88196,906.90613,1598.35815,1750.79346,-0.08252,-0.08972,0.99393,-0.875,0.35,-0.088,6140,69581,100535
1.87,187,10029,1,0,0,0,825.88196,906.90613,1598.43445,1750.64087,-0.0835,-0.08924,0.9938,-0.945,0.333,-0.228,6140,69581,100535
1.88,188,10030,1,0,0,0,825.95825,906.90613,1598.51074,1751.25122,-0.08155,-0.09009,0.99271,-1.05,0.298,-0.175,6139,69583,100541
1.89,189,10031,1,0,0,0,825.95825,906.90613,1598.28186,1750.79346,-0.0824,-0.08826,0.99258,-1.033,0.42,-0.298,6139,69583,100541
1.9,190,10032,1,0,0,0,825.95825,906.90613,1598.43445,1750.71716,-0.08411,-0.08741,0.99466,-1.173,0.473,-0.263,6139,69583,100541
1.91,191,10033,1,0,0,0,825.95825,906.90613,1598.51074,1750.56458,-0.08277,-0.09253,0.99405,-1.173,0.455,-0.158,6139,69582,100537
1.92,192,10034,1,0,0,0,825.95825,906.90613,1598.51074,1750.64087,-0.08325,-0.09473,0.99295,-0.98,0.315,-0.14,6139,69582,100537
1.93,193,10035,1,0,0,0,825.95825,906.90613,1598.43445,1750.79346,-0.08289,-0.09497,0.99344,-0.473,0.158,-0.193,6140,69585,100536
1.94,194,10036,1,0,0,0,825.95825,906.90613,1598.43445,1751.09863,-0.08142,-0.08985,0.99539,-0.543,0.228,-0.158,6140,69585,100536
1.95,195,10037,1,0,0,0,825.95825,906.90613,1598.43445,1750.64087,-0.08106,-0.08777,0.99356,-0.455,0.298,-0.105,6143,69586,100540
1.96,196,10038,1,0,0,0,825.95825,906.90613,1598.28186,1751.17493,-0.08045,-0.08069,0.99442,-0.578,0.368,-0.35,6143,69586,100540
1.97,197,10039,1,0,0,0,825.95825,906.90613,1598.58704,1751.02234,-0.08313,-0.08875,0.99466,-1.715,0.473,-0.175,6142,69584,100540
1.98,198,10040,1,0,0,0,825.88196,906.90613,1598.28186,1750.86975,-0.08167,-0.09339,0.9921,-1.768,0.368,-0.018,6143,69583,100538
1.99,199,10041,1,0,0,0,825.88196,906.90613,1598.05298,1750.79346,-0.08216,-0.09168,0.99368,-1.488,0.315,0.035,6143,69583,100538
2.0,200,10042,1,0,0,0,825.88196,906.90613,1598.58704,1751.02234,-0.08191,-0.09119,0.99393,-1.488,0.368,-0.14,6143,69583,100538
2.01,201,10043,1,0,0,0,825.88196,906.90613,1598.28186,1750.86975,-0.0835,-0.0907,0.99478,-1.278,0.49,-0.105,6145,69581,100541
2.02,202,10044,1,0,0,0,825.88196,906.90613,1598.20557,1750.64087,-0.08289,-0.08875,0.99271,-1.225,0.35,-0.245,6145,69581,100541
2.03,203,10045,1,0,0,0,825.88196,906.90613,1598.73962,1750.79346,-0.08277,-0.08741,0.99234,-1.26,0.35,-0.175,6147,69581,100533
2.04,204,10046,1,0,0,0,825.88196,906.90613,1597.97668,1750.86975,-0.08423,-0.08716,0.99405,-1.575,0.368,-0.053,6147,69581,100533
2.05,205,10047,1,0,0,0,825.88196,906.90613,1598.12927,1750.86975,-0.08289,-0.08972,0.99295,-1.698,0.333,0.035,6148,69584,100542
2.06,206,10048,1,0,0,0,825.88196,906.90613,1598.43445,1750.86975,-0.08338,-0.08997,0.99405,-1.75,0.368,-0.053,6148,69584,100542
2.07,207,10049,1,0,0,0,825.88196,906.90613,1598.05298,1750.79346,-0.08142,-0.08985,0.99295,-1.645,0.298,0.175,6150,69581,100542
2.08,208,10050,1,0,0,0,825.72937,906.90613,1598.35815,1750.79346,-0.08399,-0.09009,0.99417,-1.75,0.508,0.088,6147,69581,100544
2.09,209,10051,1,0,0,0,825.72937,906.90613,1598.28186,1750.94604,-0.08301,-0.0907,0.99417,-1.645,0.455,0.018,6147,69581,100544
2.1,210,10052,1,0,0,0,825.72937,906.90613,1598.20557,1750.86975,-0.08338,-0.08863,0.99405,-1.663,0.438,-0.123,6147,69581,100544
2.11,211,10053,1,0,0,0,825.72937,906.90613,1598.20557,1750.64087,-0.08216,-0.08911,0.99295,-1.593,0.473,0.035,6152,69585,100545
2.12,212,10054,1,0,0,0,825.72937,906.90613,1598.51074,1750.64087,-0.08386,-0.09058,0.99295,-1.505,0.42,0.07,6152,69585,100545
2.13,213,10055,1,0,0,0,825.72937,906.90613,1598.28186,1750.86975,-0.08277,-0.08972,0.99393,-1.54,0.333,-0.07,6154,69582,100549
2.14,214,10056,1,0,0,0,825.72937,906.90613,1598.12927,1750.71716,-0.0824,-0.09107,0.99161,-1.645,0.403,-0.088,6154,69582,100549
2.15,215,10057,1,0,0,0,825.72937,906.90613,1598.28186,1750.64087,-0.08301,-0.09058,0.99185,-1.715,0.473,0.035,6155,69583,100551
2.16,216,10058,1,0,0,0,825.72937,906.90613,1598.28186,1750.71716,-0.08289,-0.09107,0.99332,-1.715,0.438,0.0,6155,69583,100551
2.17,217,10059,1,0,0,0,825.72937,906.90613,1598.28186,1750.71716,-0.08423,-0.09058,0.99588,-1.523,0.42,0.0,6156,69584,100553
2.18,218,10060,1,0,0,0,826.03455,906.90613,1599.19739,1751.09863,-0.08374,-0.09033,0.99527,-1.68,0.368,0.053,6158,69590,100555
2.19,219,10061,1,0,0,0,826.03455,906.90613,1598.20557,1750.86975,-0.08325,-0.09229,0.99173,-1.733,0.473,0.105,6158,69590,100555
2.2,220,10062,1,0,0,0,826.03455,906.90613,1598.43445,1751.02234,-0.08264,-0.09143,0.99307,-1.715,0.473,-0.07,6158,69590,100555
2.21,221,10063,1,0,0,0,826.03455,906.90613,1598.58704,1750.94604,-0.08301,-0.09168,0.99344,-1.488,0.42,0.053,6163,69585,100555
2.22,222,10064,1,0,0,0,826.03455,906.90613,1598.28186,1750.71716,-0.08411,-0.09095,0.99588,-1.453,0.368,-0.035,6163,69585,100555
2.23,223,10065,1,0,0,0,826.03455,906.82983,1598.28186,1750.64087,-0.08252,-0.09204,0.9938,-1.295,0.403,-0.123,6164,69589,100562
2.24,224,10066,1,0,0,0,826.03455,906.82983,1598.12927,1750.79346,-0.08325,-0.0918,0.99344,-1.348,0.49,-0.193,6164,69589,100562
2.25,225,10067,1,0,0,0,826.03455,906.82983,1598.28186,1750.71716,-0.0846,-0.09107,0.99417,-1.313,0.473,-0.263,6165,69589,100561
2.26,226,10068,1,0,0,0,826.03455,906.82983,1598.28186,1750.71716,-0.08399,-0.09217,0.9949,-1.19,0.455,-0.245,6165,69589,100561
2.27,227,10069,1,0,0,0,826.03455,906.82983,1598.58704,1750.86975,-0.08252,-0.09131,0.99283,-0.98,0.455,-0.053,6166,69589,100564
2.28,228,10070,1,0,0,0,825.72937,906.82983,1598.28186,1750.56458,-0.08374,-0.0907,0.9949,-1.138,0.368,-0.228,6166,69587,100564
2.29,229,10071,1,0,0,0,825.72937,906.82983,1597.97668,1750.71716,-0.08277,-0.09131,0.99405,-1.138,0.245,-0.158,6166,69587,100564
2.3,230,10072,1,0,0,0,825.72937,906.82983,1598.58704,1750.94604,-0.08252,-0.0907,0.99234,-1.068,0.28,-0.245,6166,69587,100564
2.31,231,10073,1,0,0,0,825.72937,906.82983,1598.28186,1750.79346,-0.08386,-0.09156,0.99295,-1.12,0.298,-0.21,6171,69588,100568
2.32,232,10074,1,0,0,0,825.72937,906.82983,1598.35815,1750.79346,-0.08374,-0.09095,0.99295,-1.085,0.403,-0.158,6171,69588,100568
2.33,233,10075,1,0,0,0,825.72937,906.90613,1598.43445,1750.71716,-0.08264,-0.08985,0.99222,-1.05,0.438,-0.175,6174,69586,100570
2.34,234,10076,1,0,0,0,825.72937,906.90613,1598.05298,1750.79346,-0.08325,-0.08948,0.99271,-1.068,0.455,-0.053,6174,69586,100570
2.35,235,10077,1,0,0,0,825.72937,906.90613,1598.28186,1750.86975,-0.08386,-0.09095,0.99429,-1.19,0.473,-0.123,6172,69588,100572
2.36,236,10078,1,0,0,0,825.72937,906.90613,1598.66333,1750.86975,-0.08313,-0.09168,0.99405,-0.998,0.42,-0.175,6172,69588,100572
2.37,237,10079,1,0,0,0,825.72937,906.90613,1598.28186,1750.86975,-0.08386,-0.08972,0.99344,-1.085,0.42,-0.175,6175,69590,100575
2.38,238,10080,1,0,0,0,825.80566,906.90613,1598.28186,1750.71716,-0.08277,-0.09046,0.99405,-0.98,0.455,-0.07,6175,69590,100575
2.39,239,10081,1,0,0,0,825.80566,906.90613,1598.35815,1750.71716,-0.0824,-0.09058,0.99515,-0.928,0.368,-0.245,6179,69590,100577
2.4,240,10082,1,0,0,0,825.80566,906.90613,1598.20557,1750.48828,-0.08228,-0.08985,0.99454,-1.085,0.298,-0.193,6179,69590,100577
2.41,241,10083,1,0,0,0,825.80566,906.90613,1598.20557,1750.64087,-0.08252,-0.08997,0.99246,-1.295,0.473,-0.245,6182,69591,100582
2.42,242,10084,1,0,0,0,825.80566,906.90613,1598.28186,1750.64087,-0.08411,-0.09119,0.9921,-1.295,0.613,-0.228,6182,69591,100582
2.43,243,10085,1,0,0,0,825.80566,906.82983,1598.12927,1750.64087,-0.08533,-0.09241,0.99283,-1.173,0.385,-0.228,6183,69591,100587
2.44,244,10086,1,0,0,0,825.80566,906.82983,1598.12927,1750.41199,-0.0835,-0.0918,0.99246,-0.963,0.28,-0.333,6183,69591,100587
2.45,245,10087,1,0,0,0,825.80566,906.82983,1598.35815,1750.56458,-0.08228,-0.09021,0.9921,-0.875,0.298,-0.228,6184,69592,100591
2.46,246,10088,1,0,0,0,825.80566,906.82983,1598.28186,1750.41199,-0.08191,-0.08582,0.99405,-0.823,0.21,0.14,6184,69592,100591
2.47,247,10089,1,0,0,0,825.80566,906.82983,1598.28186,1750.48828,-0.07996,-0.08533,0.99564,-1.173,0.385,0.123,6186,69592,100591
2.48,248,10090,1,0,0,0,825.95825,906.82983,1598.35815,1750.71716,-0.08094,-0.09119,0.99271,-1.82,0.508,0.018,6186,69592,100591
2.49,249,10091,1,0,0,0,825.95825,906.82983,1598.20557,1750.64087,-0.0835,-0.09168,0.99295,-1.803,0.613,0.018,6190,69591,100593
2.5,250,10092,1,0,0,0,825.95825,906.82983,1598.35815,1750.71716,-0.08484,-0.09217,0.99197,-1.82,0.613,-0.088,6190,69591,100593
2.51,251,10093,1,0,0,0,825.95825,906.82983,1598.35815,1750.79346,-0.08594,-0.09302,0.9938,-1.61,0.648,-0.245,6190,69595,100598
2.52,252,10094,1,0,0,0,825.95825,906.82983,1598.35815,1750.79346,-0.08704,-0.09387,0.99442,-1.4,0.228,-0.158,6190,69595,100598
2.53,253,10095,1,0,0,0,825.95825,906.75354,1598.28186,1750.56458,-0.08362,-0.09449,0.99039,-0.84,0.105,-0.368,6193,69594,100598
2.54,254,10096,1,0,0,0,825.95825,906.75354,1598.28186,1750.86975,-0.08252,-0.09339,0.99246,-0.508,0.018,-0.28,6193,69594,100598
2.55,255,10097,1,0,0,0,825.95825,906.75354,1598.28186,1750.86975,-0.08057,-0.0929,0.99417,-0.613,0.0,-0.315,6191,69588,100594
2.56,256,10098,1,0,0,0,825.95825,906.75354,1598.12927,1750.79346,-0.07898,-0.09131,0.99307,-0.385,-0.07,-0.263,6191,69588,100594
2.57,257,10099,1,0,0,0,825.95825,906.75354,1598.43445,1750.79346,-0.07935,-0.08924,0.99442,-0.28,0.175,-0.35,6188,69589,100583
2.58,258,10100,1,0,0,0,825.72937,906.75354,1598.43445,1750.64087,-0.08228,-0.08655,0.99417,-0.56,0.403,-0.438,6188,69589,100583
2.59,259,10101,1,0,0,0,825.72937,906.75354,1598.05298,1750.64087,-0.08301,-0.08802,0.99124,-0.77,0.42,-0.438,6186,69588,100575
2.6,260,10102,1,0,0,0,825.72937,906.75354,1598.66333,1750.86975,-0.08362,-0.08789,0.99356,-0.788,0.49,-0.333,6186,69588,100575
2.61,261,10103,1,0,0,0,825.72937,906.75354,1598.12927,1751.02234,-0.08362,-0.0885,0.99234,-1.085,0.35,-0.403,6180,69585,100573
2.62,262,10104,1,0,0,0,825.72937,906.75354,1598.20557,1750.79346,-0.08399,-0.08826,0.99344,-1.138,0.35,-0.105,6180,69585,100573
2.63,263,10105,1,0,0,0,825.72937,906.98242,1598.81592,1750.79346,-0.08313,-0.09046,0.99429,-1.173,0.298,-0.228,6176,69582,100572
2.64,264,10106,1,0,0,0,825.72937,906.98242,1597.97668,1750.71716,-0.08313,-0.09449,0.99197,-1.278,0.333,-0.193,6176,69582,100572
2.65,265,10107,1,0,0,0,825.72937,906.98242,1598.28186,1750.71716,-0.08423,-0.08985,0.99344,-0.823,0.298,-0.263,6170,69578,100562
2.66,266,10108,1,0,0,0,825.72937,906.98242,1598.35815,1750.79346,-0.08325,-0.09021,0.9938,-0.753,0.263,-0.49,6170,69578,100562
2.67,267,10109,1,0,0,0,825.72937,906.98242,1598.28186,1750.71716,-0.08142,-0.0896,0.99271,-0.753,0.28,-0.385,6168,69575,100566
2.68,268,10110,1,0,0,0,825.80566,906.98242,1598.35815,1750.71716,-0.08191,-0.08802,0.9949,-0.788,0.228,-0.245,6168,69575,100566
2.69,269,10111,1,0,0,0,825.80566,906.98242,1598.58704,1750.94604,-0.08216,-0.08728,0.99356,-0.91,0.298,-0.193,6164,69576,100566
2.7,270,10112,1,0,0,0,825.80566,906.98242,1598.35815,1750.71716,-0.08228,-0.09082,0.99356,-1.05,0.28,-0.385,6164,69576,100566
2.71,271,10113,1,0,0,0,825.80566,906.98242,1598.28186,1750.64087,-0.0813,-0.08924,0.99368,-1.033,0.315,-0.368,6159,69572,100564
2.72,272,10114,1,0,0,0,825.80566,906.98242,1598.66333,1750.94604,-0.08167,-0.08875,0.99246,-1.068,0.28,-0.298,6159,69572,100564
2.73,273,10115,1,0,0,0,825.80566,906.82983,1598.28186,1750.71716,-0.08374,-0.08899,0.99319,-0.963,0.473,-0.315,6157,69572,100563
2.74,274,10116,1,0,0,0,825.80566,906.82983,1598.12927,1750.71716,-0.08374,-0.08838,0.99283,-0.928,0.368,-0.21,6157,69572,100563
2.75,275,10117,1,0,0,0,825.80566,906.82983,1598.43445,1750.64087,-0.08106,-0.08741,0.99356,-0.998,0.333,-0.403,6156,69570,100558
2.76,276,10118,1,0,0,0,825.80566,906.82983,1598.28186,1750.64087,-0.08203,-0.08997,0.99344,-1.243,0.42,-0.298,6156,69570,100558
2.77,277,10119,1,0,0,0,825.80566,906.82983,1598.35815,1750.64087,-0.08399,-0.09131,0.99478,-1.26,0.438,-0.28,6153,69571,100558
2.78,278,10120,1,0,0,0,825.88196,906.82983,1598.58704,1750.71716,-0.08264,-0.09107,0.99234,-0.928,0.473,-0.228,6153,69571,100558
2.79,279,10121,1,0,0,0,825.88196,906.82983,1598.20557,1750.71716,-0.08423,-0.08863,0.99271,-0.718,0.438,-0.263,6154,69573,100560
2.8,280,10122,1,0,0,0,825.88196,906.82983,1598.28186,1750.64087,-0.08399,-0.08557,0.99417,-0.84,0.228,-0.14,6154,69573,100560
2.81,281,10123,1,0,0,0,825.88196,906.82983,1598.51074,1750.79346,-0.0835,-0.08496,0.99405,-1.05,0.228,-0.053,6149,69569,100562
2.82,282,10124,1,0,0,0,825.88196,906.82983,1598.28186,1750.71716,-0.08277,-0.08728,0.99295,-1.243,0.21,-0.175,6149,69569,100562
2.83,283,10125,1,0,0,0,825.88196,906.75354,1598.20557,1750.41199,-0.08069,-0.08887,0.99271,-1.418,0.158,-0.193,6150,69569,100562
2.84,284,10126,1,0,0,0,825.88196,906.75354,1598.12927,1750.79346,-0.0813,-0.0896,0.99258,-1.47,0.245,-0.175,6150,69569,100562
2.85,285,10127,1,0,0,0,825.88196,906.75354,1598.20557,1750.71716,-0.08106,-0.08728,0.99405,-1.54,0.245,-0.035,6150,69568,100558
2.86,286,10128,1,0,0,0,825.88196,906.75354,1598.28186,1750.71716,-0.08118,-0.08802,0.99576,-1.488,0.333,-0.123,6150,69568,100558
2.87,287,10129,1,0,0,0,825.88196,906.75354,1598.66333,1751.09863,-0.08118,-0.08863,0.99258,-1.47,0.438,0.07,6151,69570,100563
2.88,288,10130,1,0,0,0,825.80566,906.75354,1598.20557,1750.56458,-0.08069,-0.08887,0.99185,-1.61,0.543,0.0,6151,69570,100563
2.89,289,10131,1,0,0,0,825.80566,906.75354,1598.12927,1750.71716,-0.08386,-0.08863,0.99185,-1.61,0.525,-0.088,6152,69571,100562
2.9,290,10132,1,0,0,0,825.80566,906.75354,1598.35815,1750.94604,-0.08472,-0.08911,0.99258,-1.593,0.508,0.035,6152,69571,100562
2.91,291,10133,1,0,0,0,825.80566,906.75354,1598.12927,1750.71716,-0.08374,-0.08948,0.99368,-1.593,0.385,-0.018,6149,69568,100562
2.92,292,10134,1,0,0,0,825.80566,906.75354,1598.20557,1750.56458,-0.08301,-0.09046,0.99368,-1.54,0.368,-0.018,6149,69568,100562
2.93,293,10135,1,0,0,0,825.80566,906.82983,1598.35815,1750.56458,-0.08252,-0.09058,0.99295,-1.523,0.385,-0.14,6148,69569,100563
2.94,294,10136,1,0,0,0,825.80566,906.82983,1597.97668,1750.71716,-0.08386,-0.0907,0.99454,-1.435,0.385,0.158,6148,69569,100563
2.95,295,10137,1,0,0,0,825.80566,906.82983,1598.28186,1750.64087,-0.08313,-0.08997,0.99271,-1.313,0.28,0.018,6148,69570,100562
2.96,296,10138,1,0,0,0,825.80566,906.82983,1598.58704,1750.56458,-0.08155,-0.09095,0.99356,-1.243,0.525,-0.298,6148,69570,100562
2.97,297,10139,1,0,0,0,825.80566,906.82983,1598.12927,1750.56458,-0.08313,-0.09046,0.996,-1.225,0.578,-0.228,6149,69577,100573
2.98,298,10140,1,0,0,0,825.80566,906.82983,1598.28186,1750.64087,-0.08216,-0.09058,0.99258,-1.295,0.455,-0.245,6149,69577,100573
2.99,299,10141,1,0,0,0,825.80566,906.82983,1598.28186,1750.79346,-0.08399,-0.09033,0.99332,-1.138,0.403,-0.42,6150,69573,100572
3.0,300,10142,1,0,0,0,825.80566,906.82983,1598.28186,1750.48828,-0.08216,-0.08948,0.99454,-0.945,0.385,-0.28,6150,69573,100572
3.01,301,10143,1,0,0,0,825.80566,906.82983,1598.20557,1750.41199,-0.08167,-0.08753,0.99173,-0.998,0.333,-0.228,6149,69574,100576
3.02,302,10144,1,0,0,0,825.80566,906.82983,1598.35815,1750.33569,-0.0824,-0.08753,0.99332,-1.085,0.368,-0.245,6149,69574,100576
3.03,303,10145,1,0,0,0,825.80566,906.75354,1598.12927,1750.64087,-0.08386,-0.08802,0.99576,-1.103,0.385,-0.053,6151,69576,100577
3.04,304,10146,1,0,0,0,825.80566,906.75354,1598.05298,1750.56458,-0.08301,-0.08802,0.99478,-1.225,0.298,0.018,6151,69576,100577
3.05,305,10147,1,0,0,0,825.80566,906.75354,1598.58704,1750.79346,-0.08216,-0.09119,0.99393,-1.225,0.333,-0.175,6152,69575,100583
3.06,306,10148,1,0,0,0,825.80566,906.75354,1598.28186,1750.56458,-0.08094,-0.08936,0.99356,-1.068,0.385,-0.158,6152,69575,100583
3.07,307,10149,1,0,0,0,825.80566,906.75354,1598.35815,1750.56458,-0.08289,-0.08887,0.99234,-1.278,0.35,-0.123,6153,69577,100582
3.08,308,10150,1,0,0,0,825.88196,906.75354,1598.43445,1750.56458,-0.08301,-0.08814,0.99332,-1.208,0.368,-0.018,6153,69577,100582
3.09,309,10151,1,0,0,0,825.88196,906.75354,1598.12927,1750.71716,-0.08191,-0.08838,0.99319,-1.155,0.473,-0.245,6154,69578,100579
3.1,310,10152,1,0,0,0,825.88196,906.75354,1598.20557,1750.64087,-0.08203,-0.08887,0.99283,-1.173,0.438,-0.21,6154,69578,100579
3.11,311,10153,1,0,0,0,825.88196,906.75354,1598.51074,1750.79346,-0.08289,-0.08924,0.99332,-1.225,0.455,-0.298,6158,69577,100579
3.12,312,10154,1,0,0,0,825.88196,906.75354,1598.05298,1750.71716,-0.08167,-0.09009,0.99503,-1.278,0.438,-0.28,6158,69577,100579
3.13,313,10155,1,0,0,0,825.88196,906.82983,1598.28186,1750.56458,-0.08228,-0.08887,0.99246,-1.068,0.385,-0.455,6159,69579,100586
3.14,314,10156,1,0,0,0,825.88196,906.82983,1598.12927,1750.94604,-0.08252,-0.09009,0.99234,-1.085,0.35,-0.368,6159,69579,100586
3.15,315,10157,1,0,0,0,825.88196,906.82983,1597.97668,1750.56458,-0.0824,-0.08911,0.99258,-1.208,0.28,-0.105,6158,69578,100589
3.16,316,10158,1,0,0,0,825.88196,906.82983,1598.12927,1750.64087,-0.08216,-0.08789,0.99307,-1.348,0.368,-0.175,6158,69578,100589
3.17,317,10159,1,0,0,0,825.88196,906.82983,1598.12927,1750.71716,-0.08313,-0.08765,0.99466,-1.47,0.438,-0.42,6159,69574,100590
3.18,318,10160,1,0,0,0,825.72937,906.82983,1598.28186,1750.79346,-0.08216,-0.09009,0.99258,-1.47,0.42,-0.245,6159,69574,100590
3.19,319,10161,1,0,0,0,825.72937,906.82983,1597.90039,1750.71716,-0.08155,-0.08985,0.99246,-1.348,0.42,-0.123,6163,69580,100600
3.2,320,10162,1,0,0,0,825.72937,906.82983,1598.35815,1751.40381,-0.0824,-0.08875,0.99368,-1.243,0.368,0.0,6163,69580,100600
3.21,321,10163,1,0,0,0,825.72937,906.82983,1598.12927,1750.94604,-0.08277,-0.08863,0.99429,-1.225,0.455,-0.263,6165,69580,100605
3.22,322,10164,1,0,0,0,825.72937,906.82983,1598.05298,1750.64087,-0.08301,-0.08948,0.99295,-0.998,0.455,-0.21,6165,69580,100605
3.23,323,10165,1,0,0,0,825.72937,906.98242,1598.35815,1750.64087,-0.08301,-0.08826,0.99417,-1.138,0.455,-0.21,6165,69581,100599
3.24,324,10166,1,0,0,0,825.72937,906.98242,1597.97668,1750.56458,-0.08252,-0.08777,0.99393,-1.278,0.368,-0.21,6165,69581,100599
3.25,325,10167,1,0,0,0,825.72937,906.98242,1598.12927,1750.56458,-0.08374,-0.08814,0.99429,-1.348,0.228,-0.193,6169,69584,100605
3.26,326,10168,1,0,0,0,825.72937,906.98242,1598.35815,1750.56458,-0.08277,-0.08936,0.99332,-1.348,0.315,0.035,6169,69584,100605
3.27,327,10169,1,0,0,0,825.72937,906.98242,1598.12927,1750.56458,-0.08435,-0.0885,0.99588,-1.418,0.42,-0.35,6167,69582,100610
3.28,328,10170,1,0,0,0,825.80566,906.98242,1598.28186,1750.56458,-0.0824,-0.08936,0.99454,-1.4,0.42,-0.175,6167,69582,100610
3.29,329,10171,1,0,0,0,825.80566,906.98242,1598.28186,1750.64087,-0.08118,-0.08826,0.99454,-1.295,0.333,-0.105,6167,69578,100610
3.3,330,10172,1,0,0,0,825.80566,906.98242,1598.35815,1750.56458,-0.08228,-0.08728,0.99405,-1.348,0.473,-0.07,6167,69578,100610
3.31,331,10173,1,0,0,0,825.80566,906.98242,1598.20557,1750.56458,-0.08289,-0.08911,0.9938,-1.488,0.49,-0.088,6171,69581,100609
3.32,332,10174,1,0,0,0,825.80566,906.98242,1598.28186,1750.94604,-0.08277,-0.08826,0.99319,-1.365,0.42,-0.21,6171,69581,100609
3.33,333,10175,1,0,0,0,825.80566,906.75354,1598.12927,1750.56458,-0.08277,-0.08765,0.99344,-1.33,0.403,-0.053,6173,69584,100621
3.34,334,10176,1,0,0,0,825.80566,906.75354,1597.90039,1750.48828,-0.08289,-0.08887,0.99393,-1.313,0.508,-0.123,6173,69584,100621
3.35,335,10177,1,0,0,0,825.80566,906.75354,1598.20557,1750.56458,-0.0835,-0.0896,0.99539,-1.243,0.525,-0.35,6176,69583,100625
3.36,336,10178,1,0,0,0,825.80566,906.75354,1598.20557,1750.56458,-0.0835,-0.08911,0.99283,-1.225,0.455,-0.245,6176,69583,100625
3.37,337,10179,1,0,0,0,825.80566,906.75354,1598.20557,1750.48828,-0.08362,-0.08875,0.99149,-1.225,0.455,-0.158,6177,69584,100627
3.38,338,10180,1,0,0,0,825.88196,906.75354,1598.51074,1750.56458,-0.08435,-0.0896,0.9938,-1.085,0.385,-0.14,6177,69584,100627
3.39,339,10181,1,0,0,0,825.88196,906.75354,1598.12927,1750.71716,-0.0835,-0.08948,0.99368,-1.173,0.298,-0.228,6179,69585,100630
3.4,340,10182,1,0,0,0,825.88196,906.75354,1598.20557,1750.79346,-0.0835,-0.08863,0.99612,-1.208,0.228,-0.228,6179,69585,100630
3.41,341,10183,1,0,0,0,825.88196,906.75354,1598.35815,1750.71716,-0.08191,-0.08936,0.99295,-1.173,0.263,-0.088,6181,69584,100630
3.42,342,10184,1,0,0,0,825.88196,906.75354,1598.05298,1750.64087,-0.08203,-0.08985,0.99356,-1.05,0.403,-0.28,6181,69584,100630
3.43,343,10185,1,0,0,0,825.88196,906.60095,1598.20557,1750.48828,-0.08289,-0.08716,0.99393,-1.208,0.403,-0.298,6186,69584,100635
3.44,344,10186,1,0,0,0,825.88196,906.60095,1597.97668,1750.94604,-0.0824,-0.08802,0.99283,-1.138,0.385,-0.21,6186,69584,100635
3.45,345,10187,1,0,0,0,825.88196,906.60095,1598.12927,1750.64087,-0.08399,-0.08655,0.99539,-1.313,0.49,-0.315,6185,69584,100634
3.46,346,10188,1,0,0,0,825.88196,906.60095,1597.90039,1751.02234,-0.08277,-0.08924,0.99246,-1.365,0.42,-0.298,6185,69584,100634
3.47,347,10189,1,0,0,0,825.88196,906.60095,1598.35815,1750.94604,-0.08313,-0.08997,0.99454,-1.295,0.473,-0.158,6188,69583,100639
3.48,348,10190,1,0,0,0,825.72937,906.60095,1598.12927,1750.41199,-0.08301,-0.08997,0.99197,-1.05,0.28,-0.333,6188,69583,100639
3.49,349,10191,1,0,0,0,825.72937,906.60095,1597.97668,1750.56458,-0.08289,-0.0896,0.99258,-1.103,0.245,-0.245,6190,69585,100644
3.5,350,10192,1,0,0,0,825.72937,906.60095,1598.28186,1750.71716,-0.08277,-0.09021,0.99454,-1.173,0.28,-0.07,6190,69585,100644
3.51,351,10193,1,0,0,0,825.72937,906.60095,1598.05298,1750.33569,-0.08338,-0.08741,0.99429,-0.998,0.263,-0.088,6191,69588,100650
3.52,352,10194,1,0,0,0,825.72937,906.60095,1598.05298,1750.41199,-0.08289,-0.08655,0.99283,-0.893,0.263,0.053,6191,69588,100650
3.53,353,10195,1,0,0,0,825.72937,906.82983,1598.20557,1750.71716,-0.08142,-0.08643,0.99625,-1.19,0.245,0.07,6192,69590,100652
3.54,354,10196,1,0,0,0,825.72937,906.82983,1597.90039,1750.2594,-0.08191,-0.08716,0.99368,-1.435,0.315,-0.053,6192,69590,100652
3.55,355,10197,1,0,0,0,825.72937,906.82983,1598.12927,1750.33569,-0.08338,-0.08802,0.99417,-1.61,0.455,-0.158,6195,69588,100653
3.56,356,10198,1,0,0,0,825.72937,906.82983,1598.28186,1750.71716,-0.08448,-0.08875,0.99527,-1.54,0.49,-0.105,6195,69588,100653
3.57,357,10199,1,0,0,0,825.72937,906.82983,1598.20557,1750.33569,-0.08362,-0.09033,0.99551,-1.453,0.42,-0.088,6195,69591,100662
3.58,358,10200,1,0,0,0,825.65308,906.82983,1597.97668,1750.94604,-0.08264,-0.08972,0.99075,-1.12,0.508,-0.053,6195,69591,100662
3.59,359,10201,1,0,0,0,825.65308,906.82983,1598.20557,1750.33569,-0.08277,-0.08594,0.99185,-1.12,0.315,0.018,6198,69587,100663
3.6,360,10202,1,0,0,0,825.65308,906.82983,1598.12927,1750.41199,-0.08069,-0.08423,0.99454,-1.383,0.385,0.105,6198,69587,100663
3.61,361,10203,1,0,0,0,825.65308,906.82983,1598.12927,1750.56458,-0.07959,-0.08533,0.99478,-1.628,0.438,0.158,6201,69588,100660
3.62,362,10204,1,0,0,0,825.65308,906.82983,1598.20557,1750.56458,-0.08069,-0.08618,0.99539,-1.995,0.525,0.123,6201,69588,100660
3.63,363,10205,1,0,0,0,825.65308,906.67725,1597.97668,1750.41199,-0.08435,-0.09204,0.99246,-1.838,0.455,0.018,6202,69583,100657
3.64,364,10206,1,0,0,0,825.65308,906.67725,1597.90039,1750.41199,-0.08533,-0.09107,0.99417,-1.733,0.473,-0.158,6202,69583,100657
3.65,365,10207,1,0,0,0,825.65308,906.67725,1598.20557,1750.64087,-0.08618,-0.09046,0.99637,-1.348,0.298,-0.105,6206,69588,100669
3.66,366,10208,1,0,0,0,825.65308,906.67725,1598.20557,1750.48828,-0.08618,-0.08985,0.99503,-1.26,0.35,0.018,6206,69588,100669
3.67,367,10209,1,0,0,0,825.65308,906.67725,1598.05298,1750.56458,-0.08521,-0.08887,0.99319,-1.19,0.14,0.053,6205,69590,100667
3.68,368,10210,1,0,0,0,825.72937,906.67725,1598.35815,1750.33569,-0.07935,-0.09119,0.9921,-1.365,-0.07,-0.228,6205,69590,100667
3.69,369,10211,1,0,0,0,825.72937,906.67725,1597.90039,1750.48828,-0.07923,-0.09265,0.99271,-1.33,0.088,-0.053,6204,69587,100652
3.7,370,10212,1,0,0,0,825.72937,906.67725,1597.97668,1750.41199,-0.08094,-0.09021,0.99649,-1.173,0.053,-0.228,6204,69587,100652
3.71,371,10213,1,0,0,0,825.72937,906.67725,1598.28186,1750.56458,-0.07959,-0.09119,0.99442,-1.05,0.193,-0.175,6202,69583,100644
3.72,372,10214,1,0,0,0,825.72937,906.67725,1597.90039,1750.41199,-0.08167,-0.08911,0.99539,-0.91,0.333,-0.158,6202,69583,100644
3.73,373,10215,1,0,0,0,825.72937,906.52466,1598.12927,1750.41199,-0.08325,-0.08655,0.99197,-0.91,0.455,-0.315,6198,69576,100642
3.74,374,10216,1,0,0,0,825.72937,906.52466,1597.90039,1750.64087,-0.08448,-0.08692,0.99161,-1.068,0.49,-0.368,6198,69576,100642
3.75,375,10217,1,0,0,0,825.72937,906.52466,1597.90039,1750.41199,-0.08582,-0.08631,0.99576,-1.155,0.473,-0.21,6193,69580,100643
3.76,376,10218,1,0,0,0,825.72937,906.52466,1597.90039,1750.41199,-0.08399,-0.08972,0.99356,-1.225,0.49,-0.123,6193,69580,100643
3.77,377,10219,1,0,0,0,825.72937,906.52466,1598.20557,1750.64087,-0.08423,-0.09095,0.9938,-1.26,0.438,-0.228,6189,69574,100640
3.78,378,10220,1,0,0,0,825.80566,906.52466,1598.05298,1750.48828,-0.08411,-0.09095,0.99319,-0.928,0.28,-0.368,6189,69574,100640
3.79,379,10221,1,0,0,0,825.80566,906.52466,1597.90039,1750.71716,-0.08167,-0.09095,0.99319,-0.928,0.28,-0.368,6184,69572,100636
3.8,380,10222,1,0,0,0,825.80566,906.52466,1598.28186,1750.48828,-0.08228,-0.08887,0.99612,-0.648,0.245,-0.21,6184,69572,100636
3.81,381,10223,1,0,0,0,825.80566,906.52466,1598.05298,1750.64087,-0.08167,-0.08802,0.99429,-0.665,0.35,-0.368,6183,69565,100629
3.82,382,10224,1,0,0,0,825.80566,906.52466,1598.12927,1750.48828,-0.08203,-0.08728,0.99295,-0.84,0.403,-0.263,6183,69565,100629
3.83,383,10225,1,0,0,0,825.80566,906.82983,1598.28186,1750.86975,-0.08069,-0.08948,0.99136,-0.91,0.385,-0.053,6176,69562,100624
3.84,384,10226,1,0,0,0,825.80566,906.82983,1597.90039,1750.33569,-0.0835,-0.08838,0.9938,-0.98,0.245,-0.053,6176,69562,100624
3.85,385,10227,1,0,0,0,825.80566,906.82983,1598.43445,1750.48828,-0.08484,-0.08753,0.99673,-1.033,0.298,-0.245,6178,69562,100624
3.86,386,10228,1,0,0,0,825.80566,906.82983,1598.20557,1750.48828,-0.08277,-0.08911,0.99136,-1.015,0.298,-0.14,6178,69562,100624
3.87,387,10229,1,0,0,0,825.80566,906.82983,1598.12927,1750.41199,-0.08203,-0.08863,0.99222,-0.91,0.368,-0.228,6173,69559,100626
3.88,388,10230,1,0,0,0,825.80566,906.82983,1598.12927,1750.48828,-0.08203,-0.0885,0.9921,-0.893,0.315,-0.263,6173,69559,100626
3.89,389,10231,1,0,0,0,825.80566,906.82983,1598.28186,1750.71716,-0.08289,-0.08704,0.9949,-0.875,0.298,-0.088,6172,69561,100621
3.9,390,10232,1,0,0,0,825.80566,906.82983,1598.12927,1750.48828,-0.08264,-0.08887,0.99612,-1.138,0.193,-0.298,6172,69561,100621
3.91,391,10233,1,0,0,0,825.80566,906.82983,1598.20557,1750.48828,-0.08155,-0.09058,0.99319,-1.12,0.385,-0.315,6167,69556,100620
3.92,392,10234,1,0,0,0,825.80566,906.82983,1598.28186,1750.71716,-0.08216,-0.09107,0.99258,-0.875,0.49,-0.49,6167,69556,100620
3.93,393,10235,1,0,0,0,825.80566,906.67725,1598.12927,1750.33569,-0.0824,-0.09009,0.99271,-0.7,0.49,-0.49,6164,69550,100619
3.94,394,10236,1,0,0,0,825.80566,906.67725,1597.90039,1750.41199,-0.08411,-0.08679,0.99393,-0.595,0.508,-0.403,6164,69550,100619
3.95,395,10237,1,0,0,0,825.80566,906.67725,1598.20557,1750.64087,-0.08325,-0.08411,0.99258,-0.945,0.403,-0.315,6163,69554,100620
3.96,396,10238,1,0,0,0,825.80566,906.67725,1598.05298,1750.56458,-0.0824,-0.0846,0.99295,-1.33,0.193,-0.245,6163,69554,100620
3.97,397,10239,1,0,0,0,825.80566,906.67725,1598.12927,1750.56458,-0.08155,-0.08606,0.99344,-1.26,0.158,-0.053,6165,69549,100614
3.98,398,10240,1,0,0,0,825.80566,906.67725,1598.58704,1750.48828,-0.08094,-0.08704,0.99417,-1.488,0.315,0.053,6165,69549,100614
3.99,399,10241,1,0,0,0,825.80566,906.67725,1597.97668,1750.56458,-0.08106,-0.08753,0.99515,-1.435,0.368,0.123,6162,69542,100610
4.0,400,10242,1,0,0,0,825.80566,906.67725,1598.12927,1750.56458,-0.07923,-0.08765,0.99234,-1.645,0.473,-0.035,6162,69542,100610
4.01,401,10243,1,0,0,0,825.80566,906.67725,1598.20557,1750.71716,-0.08081,-0.08802,0.99283,-1.558,0.438,-0.158,6163,69542,100613
4.02,402,10244,1,0,0,0,825.80566,906.67725,1598.05298,1750.64087,-0.08289,-0.08618,0.99564,-1.61,0.63,-0.158,6163,69542,100613
4.03,403,10245,1,0,0,0,825.80566,906.75354,1598.20557,1750.48828,-0.08448,-0.08618,0.99368,-1.61,0.735,-0.053,6160,69545,100611
4.04,404,10246,1,0,0,0,825.80566,906.75354,1597.90039,1750.94604,-0.0857,-0.08643,0.9949,-1.89,0.805,-0.053,6160,69545,100611
4.05,405,10247,1,0,0,0,825.80566,906.75354,1598.05298,1750.48828,-0.08435,-0.08887,0.99283,-1.873,0.56,-0.07,6157,69543,100609
4.06,406,10248,1,0,0,0,825.80566,906.75354,1598.05298,1750.48828,-0.08228,-0.0896,0.99161,-1.768,0.473,0.018,6157,69543,100609
4.07,407,10249,1,0,0,0,825.80566,906.75354,1598.35815,1750.56458,-0.08435,-0.0885,0.99442,-1.803,0.403,0.175,6161,69542,100606
4.08,408,10250,1,0,0,0,825.72937,906.75354,1598.12927,1750.64087,-0.08325,-0.08997,0.99527,-1.663,0.28,0.228,6161,69542,100606
4.09,409,10251,1,0,0,0,825.72937,906.75354,1597.97668,1750.33569,-0.08338,-0.09009,0.99442,-1.523,0.368,0.07,6159,69537,100604
4.1,410,10252,1,0,0,0,825.72937,906.75354,1598.20557,1750.56458,-0.08203,-0.09033,0.99332,-1.365,0.263,0.0,6159,69537,100604
4.11,411,10253,1,0,0,0,825.72937,906.75354,1598.05298,1750.10681,-0.08216,-0.08899,0.99295,-1.47,0.42,-0.228,6160,69535,100607
4.12,412,10254,1,0,0,0,825.72937,906.75354,1598.20557,1750.33569,-0.08264,-0.08814,0.99576,-1.4,0.385,-0.158,6160,69535,100607
4.13,413,10255,1,0,0,0,825.72937,906.82983,1597.97668,1750.48828,-0.0835,-0.09021,0.99527,-1.383,0.403,-0.228,6159,69535,100602
4.14,414,10256,1,0,0,0,825.72937,906.82983,1597.90039,1750.33569,-0.08142,-0.08924,0.99429,-1.243,0.49,-0.088,6159,69535,100602
4.15,415,10257,1,0,0,0,825.72937,906.82983,1598.28186,1750.2594,-0.08203,-0.08838,0.99271,-1.208,0.455,-0.263,6159,69535,100602
4.16,416,10258,1,0,0,0,825.72937,906.82983,1598.43445,1750.41199,-0.0835,-0.08838,0.99319,-1.278,0.473,-0.14,6159,69534,100606
4.17,417,10259,1,0,0,0,825.72937,906.82983,1598.05298,1750.41199,-0.08557,-0.08777,0.99393,-1.313,0.473,0.0,6159,69534,100606
4.18,418,10260,1,0,0,0,825.88196,906.82983,1598.12927,1750.48828,-0.08252,-0.09033,0.99283,-1.295,0.403,-0.245,6162,69537,100613
4.19,419,10261,1,0,0,0,825.88196,906.82983,1598.05298,1750.71716,-0.08277,-0.08985,0.99332,-1.33,0.28,-0.018,6162,69537,100613
4.2,420,10262,1,0,0,0,825.88196,906.82983,1598.12927,1750.64087,-0.08423,-0.08924,0.99564,-1.313,0.403,-0.158,6163,69537,100621
4.21,421,10263,1,0,0,0,825.88196,906.82983,1598.12927,1750.56458,-0.08216,-0.09009,0.99283,-1.068,0.35,-0.105,6163,69537,100621
4.22,422,10264,1,0,0,0,825.88196,906.82983,1598.28186,1750.56458,-0.08252,-0.08924,0.99393,-0.875,0.315,-0.105,6164,69540,100620
4.23,423,10265,1,0,0,0,825.88196,906.60095,1598.20557,1750.41199,-0.08301,-0.08802,0.99442,-0.963,0.315,-0.053,6161,69540,100620
4.24,424,10266,1,0,0,0,825.88196,906.60095,1597.8241,1750.41199,-0.0835,-0.08936,0.9938,-0.928,0.333,-0.193,6161,69540,100620
4.25,425,10267,1,0,0,0,825.88196,906.60095,1598.20557,1750.48828,-0.0835,-0.08777,0.9949,-0.91,0.385,-0.123,6161,69540,100620
4.26,426,10268,1,0,0,0,825.88196,906.60095,1597.97668,1750.48828,-0.08203,-0.08875,0.99258,-0.875,0.368,-0.123,6165,69543,100628
4.27,427,10269,1,0,0,0,825.88196,906.60095,1597.97668,1750.41199,-0.08155,-0.08911,0.99271,-1.015,0.35,-0.105,6165,69543,100628
4.28,428,10270,1,0,0,0,825.72937,906.60095,1598.20557,1750.41199,-0.0835,-0.08863,0.99588,-0.998,0.315,-0.175,6166,69539,100628
4.29,429,10271,1,0,0,0,825.72937,906.60095,1597.67151,1750.41199,-0.08203,-0.08838,0.99295,-0.84,0.315,0.035,6166,69539,100628
4.3,430,10272,1,0,0,0,825.72937,906.60095,1597.97668,1750.41199,-0.08228,-0.08863,0.99551,-1.103,0.28,-0.193,6167,69542,100627
4.31,431,10273,1,0,0,0,825.72937,906.60095,1598.28186,1750.64087,-0.08191,-0.08838,0.99319,-1.033,0.315,-0.21,6167,69542,100627
4.32,432,10274,1,0,0,0,825.72937,906.60095,1598.05298,1750.41199,-0.08399,-0.08741,0.99405,-1.138,0.403,-0.035,6170,69539,100636
4.33,433,10275,1,0,0,0,825.72937,906.60095,1598.05298,1750.41199,-0.0835,-0.08704,0.99564,-1.313,0.42,-0.088,6169,69544,100641
4.34,434,10276,1,0,0,0,825.72937,906.60095,1597.97668,1750.56458,-0.08203,-0.08728,0.9938,-1.418,0.42,-0.105,6169,69544,100641
4.35,435,10277,1,0,0,0,825.72937,906.60095,1598.05298,1750.41199,-0.08313,-0.0885,0.99307,-1.383,0.315,0.0,6169,69544,100641
4.36,436,10278,1,0,0,0,825.72937,906.60095,1598.05298,1750.33569,-0.08216,-0.0885,0.99258,-1.313,0.368,-0.018,6171,69546,100638
4.37,437,10279,1,0,0,0,825.72937,906.60095,1598.12927,1750.41199,-0.08313,-0.0885,0.99295,-1.575,0.385,-0.053,6171,69546,100638
4.38,438,10280,1,0,0,0,825.72937,906.60095,1598.12927,1750.41199,-0.08386,-0.0885,0.99564,-1.47,0.35,0.158,6173,69544,100643
4.39,439,10281,1,0,0,0,825.72937,906.60095,1597.97668,1750.33569,-0.08228,-0.08863,0.99307,-1.313,0.385,0.158,6173,69544,100643
4.4,440,10282,1,0,0,0,825.72937,906.60095,1598.20557,1750.33569,-0.08167,-0.08741,0.99258,-1.365,0.473,-0.123,6177,69549,100649
4.41,441,10283,1,0,0,0,825.72937,906.60095,1598.05298,1750.2594,-0.08094,-0.08948,0.99014,-1.488,0.508,-0.053,6177,69549,100649
4.42,442,10284,1,0,0,0,825.72937,906.60095,1598.12927,1750.18311,-0.08277,-0.0885,0.9938,-1.348,0.42,-0.123,6179,69552,100653
4.43,443,10285,1,0,0,0,825.72937,906.60095,1598.66333,1750.56458,-0.08289,-0.08765,0.99417,-1.348,0.49,-0.035,6179,69553,100655
4.44,444,10286,1,0,0,0,825.72937,906.60095,1597.8241,1750.33569,-0.08301,-0.08802,0.99332,-1.435,0.455,0.105,6179,69553,100655
4.45,445,10287,1,0,0,0,825.72937,906.60095,1598.12927,1750.33569,-0.08216,-0.0885,0.99356,-1.488,0.438,0.088,6179,69553,100655
4.46,446,10288,1,0,0,0,825.72937,906.60095,1598.28186,1750.33569,-0.08277,-0.08777,0.99417,-1.435,0.28,-0.07,6184,69551,100657
4.47,447,10289,1,0,0,0,825.72937,906.60095,1598.05298,1750.33569,-0.08252,-0.08911,0.99356,-1.348,0.525,0.035,6184,69551,100657
4.48,448,10290,1,0,0,0,825.80566,906.60095,1598.12927,1750.18311,-0.0835,-0.08948,0.99319,-1.365,0.455,0.053,6184,69549,100660
4.49,449,10291,1,0,0,0,825.80566,906.60095,1598.12927,1750.48828,-0.08203,-0.09058,0.99246,-1.4,0.385,-0.105,6184,69549,100660
4.5,450,10292,1,0,0,0,825.80566,906.60095,1597.97668,1750.33569,-0.08252,-0.09058,0.99393,-1.295,0.35,-0.21,6188,69550,100661
4.51,451,10293,1,0,0,0,825.80566,906.60095,1598.12927,1750.33569,-0.08411,-0.08789,0.99564,-1.295,0.473,-0.298,6188,69550,100661
4.52,452,10294,1,0,0,0,825.80566,906.60095,1598.12927,1750.79346,-0.08386,-0.08765,0.99515,-1.243,0.42,-0.315,6188,69546,100662
4.53,453,10295,1,0,0,0,825.80566,906.60095,1598.12927,1750.2594,-0.08399,-0.09021,0.99344,-1.278,0.438,-0.07,6188,69546,100662
4.54,454,10296,1,0,0,0,825.80566,906.60095,1597.97668,1750.48828,-0.08167,-0.09033,0.991,-1.243,0.403,-0.123,6192,69548,100664
4.55,455,10297,1,0,0,0,825.80566,906.60095,1598.12927,1750.64087,-0.0824,-0.08985,0.99185,-1.225,0.42,-0.228,6192,69548,100664
4.56,456,10298,1,0,0,0,825.80566,906.60095,1598.05298,1750.48828,-0.08289,-0.08924,0.9921,-1.103,0.35,-0.28,6194,69547,100664
4.57,457,10299,1,0,0,0,825.80566,906.60095,1598.05298,1750.41199,-0.08252,-0.08936,0.99319,-0.998,0.333,-0.193,6194,69547,100664
4.58,458,10300,1,0,0,0,825.88196,906.60095,1598.89221,1750.56458,-0.08228,-0.08838,0.99429,-0.91,0.403,-0.158,6193,69544,100665
4.59,459,10301,1,0,0,0,825.88196,906.60095,1597.7478,1750.33569,-0.08155,-0.08863,0.99283,-1.033,0.333,-0.105,6193,69544,100665
4.6,460,10302,1,0,0,0,825.88196,906.60095,1598.05298,1750.33569,-0.08155,-0.08826,0.99222,-1.19,0.42,-0.175,6195,69546,100667
4.61,461,10303,1,0,0,0,825.88196,906.60095,1598.20557,1750.33569,-0.08228,-0.08777,0.99393,-1.138,0.385,-0.228,6195,69546,100667
4.62,462,10304,1,0,0,0,825.88196,906.60095,1597.97668,1750.18311,-0.08094,-0.08789,0.9921,-1.155,0.368,-0.333,6199,69545,100676
4.63,463,10305,1,0,0,0,825.88196,906.60095,1597.97668,1750.33569,-0.08252,-0.08899,0.99478,-0.998,0.403,-0.123,6199,69545,100676
4.64,464,10306,1,0,0,0,825.88196,906.60095,1597.97668,1750.33569,-0.08374,-0.08728,0.99515,-0.945,0.455,-0.175,6201,69543,100674
4.65,465,10307,1,0,0,0,825.88196,906.60095,1597.97668,1750.18311,-0.0824,-0.08814,0.99136,-1.103,0.438,-0.228,6201,69543,100674
4.66,466,10308,1,0,0,0,825.88196,906.60095,1598.05298,1750.18311,-0.08191,-0.08716,0.99246,-1.138,0.263,-0.158,6199,69548,100677
4.67,467,10309,1,0,0,0,825.88196,906.60095,1598.28186,1750.56458,-0.08118,-0.08777,0.99356,-1.085,0.228,-0.018,6199,69548,100677
4.68,468,10310,1,0,0,0,825.65308,906.60095,1597.90039,1750.2594,-0.08277,-0.08765,0.99466,-1.278,0.385,-0.088,6203,69547,100680
4.69,469,10311,1,0,0,0,825.65308,906.60095,1597.7478,1750.10681,-0.0846,-0.08936,0.99429,-1.365,0.455,-0.14,6203,69547,100680
4.7,470,10312,1,0,0,0,825.65308,906.60095,1598.20557,1750.2594,-0.08264,-0.09021,0.99319,-1.4,0.455,-0.123,6206,69547,100679
4.71,471,10313,1,0,0,0,825.65308,906.60095,1598.12927,1750.2594,-0.08277,-0.0896,0.99161,-1.435,0.263,-0.193,6206,69547,100679
4.72,472,10314,1,0,0,0,825.65308,906.60095,1598.20557,1750.18311,-0.08362,-0.08948,0.99161,-1.26,0.473,-0.385,6209,69546,100680
4.73,473,10315,1,0,0,0,825.65308,906.82983,1598.12927,1750.2594,-0.08094,-0.08362,0.99637,-1.243,0.473,-0.158,6209,69546,100680
4.74,474,10316,1,0,0,0,825.65308,906.82983,1598.05298,1750.2594,-0.08069,-0.08325,0.99625,-1.505,0.42,-0.088,6208,69545,100679
4.75,475,10317,1,0,0,0,825.65308,906.82983,1598.05298,1750.2594,-0.0791,-0.08631,0.99271,-1.978,0.455,-0.158,6208,69545,100679
4.76,476,10318,1,0,0,0,825.65308,906.82983,1598.20557,1750.33569,-0.08203,-0.0896,0.99466,-2.065,0.578,-0.333,6214,69546,100682
4.77,477,10319,1,0,0,0,825.65308,906.82983,1597.97668,1750.2594,-0.08435,-0.09107,0.99356,-2.03,0.7,-0.158,6214,69546,100682
4.78,478,10320,1,0,0,0,825.72937,906.82983,1598.12927,1750.2594,-0.08643,-0.08997,0.99478,-1.855,0.508,0.018,6213,69545,100686
4.79,479,10321,1,0,0,0,825.72937,906.82983,1597.8241,1750.18311,-0.08618,-0.09119,0.99588,-1.523,0.42,0.07,6213,69545,100686
4.8,480,10322,1,0,0,0,825.72937,906.82983,1597.90039,1750.2594,-0.08386,-0.08887,0.99271,-1.47,0.21,0.018,6215,69548,100690
4.81,481,10323,1,0,0,0,825.72937,906.82983,1597.90039,1750.33569,-0.08435,-0.08899,0.99405,-1.418,0.158,-0.07,6215,69548,100690
4.82,482,10324,1,0,0,0,825.72937,906.82983,1598.05298,1750.56458,-0.08264,-0.09058,0.99124,-1.47,0.158,-0.053,6216,69545,100679
4.83,483,10325,1,0,0,0,825.72937,906.44836,1598.05298,1750.10681,-0.07874,-0.09119,0.99417,-1.015,0.298,-0.228,6216,69545,100679
4.84,484,10326,1,0,0,0,825.72937,906.44836,1597.7478,1750.2594,-0.07996,-0.0896,0.9949,-1.155,0.368,-0.35,6213,69542,100670
4.85,485,10327,1,0,0,0,825.72937,906.44836,1597.90039,1750.56458,-0.08081,-0.08936,0.9938,-1.085,0.403,-0.368,6213,69542,100670
4.86,486,10328,1,0,0,0,825.72937,906.44836,1597.8241,1750.18311,-0.08228,-0.08899,0.99319,-1.033,0.578,-0.42,6212,69541,100663
4.87,487,10329,1,0,0,0,825.72937,906.44836,1597.90039,1750.10681,-0.08472,-0.08924,0.9938,-1.103,0.665,-0.315,6212,69541,100663
4.88,488,10330,1,0,0,0,825.57678,906.44836,1598.12927,1750.2594,-0.08374,-0.08728,0.99112,-1.138,0.543,-0.14,6208,69540,100664
4.89,489,10331,1,0,0,0,825.57678,906.44836,1597.67151,1750.18311,-0.08484,-0.08863,0.99246,-1.173,0.455,-0.21,6208,69540,100664
4.9,490,10332,1,0,0,0,825.57678,906.44836,1597.97668,1750.2594,-0.0846,-0.09119,0.99344,-1.19,0.385,-0.385,6203,69542,100660
4.91,491,10333,1,0,0,0,825.57678,906.44836,1598.20557,1750.41199,-0.08472,-0.0907,0.99503,-0.998,0.28,-0.35,6203,69542,100660
4.92,492,10334,1,0,0,0,825.57678,906.44836,1597.97668,1750.33569,-0.08362,-0.09107,0.99405,-0.805,0.263,-0.21,6201,69534,100658
4.93,493,10335,1,0,0,0,825.57678,906.60095,1598.05298,1750.33569,-0.08142,-0.08936,0.99344,-0.473,0.14,-0.438,6201,69534,100658
4.94,494,10336,1,0,0,0,825.57678,906.60095,1598.12927,1750.56458,-0.08264,-0.08716,0.99564,-0.403,0.21,-0.49,6196,69531,100652
4.95,495,10337,1,0,0,0,825.57678,906.60095,1597.97668,1750.10681,-0.08301,-0.08509,0.99417,-0.63,0.263,-0.525,6196,69531,100652
4.96,496,10338,1,0,0,0,825.57678,906.60095,1598.05298,1750.18311,-0.08472,-0.0846,0.99588,-0.84,0.315,-0.403,6195,69530,100651
4.97,497,10339,1,0,0,0,825.57678,906.60095,1598.12927,1750.2594,-0.08252,-0.08679,0.99344,-0.84,0.28,-0.263,6195,69530,100651
4.98,498,10340,1,0,0,0,825.72937,906.60095,1597.97668,1750.2594,-0.08118,-0.08728,0.99429,-0.893,0.14,-0.315,6192,69528,100646
4.99,499,10341,1,0,0,0,825.72937,906.60095,1597.8241,1750.18311,-0.08191,-0.08826,0.99417,-1.033,0.21,-0.35,6192,69528,100646
5.0,500,10342,1,0,0,0,825.72937,906.60095,1598.20557,1750.2594,-0.08325,-0.08716,0.99368,-0.858,0.42,-0.193,6191,69527,100648
5.01,501,10343,1,0,0,0,825.72937,906.60095,1598.05298,1750.10681,-0.08301,-0.08704,0.99466,-0.875,0.473,-0.21,6191,69527,100648
5.02,502,10344,1,0,0,0,825.72937,906.60095,1597.97668,1750.33569,-0.08167,-0.08765,0.99149,-0.735,0.543,-0.315,6188,69531,100647
5.03,503,10345,1,0,0,0,825.72937,906.60095,1598.66333,1750.18311,-0.08228,-0.08631,0.99393,-0.945,0.42,-0.438,6188,69531,100647
5.04,504,10346,1,0,0,0,825.72937,906.60095,1597.8241,1750.10681,-0.08155,-0.08728,0.99417,-1.138,0.473,-0.35,6182,69523,100645
5.05,505,10347,1,0,0,0,825.72937,906.60095,1598.12927,1750.18311,-0.08448,-0.08863,0.99344,-1.19,0.403,0.158,6182,69523,100645
5.06,506,10348,1,0,0,0,825.72937,906.60095,1598.05298,1750.48828,-0.08435,-0.08777,0.99319,-1.068,0.42,-0.105,6184,69522,100648
5.07,507,10349,1,0,0,0,825.72937,906.60095,1597.97668,1750.33569,-0.08179,-0.08386,0.99271,-1.033,0.333,-0.088,6184,69522,100648
5.08,508,10350,1,0,0,0,825.65308,906.60095,1598.20557,1750.18311,-0.08277,-0.08362,0.99405,-1.068,0.35,0.018,6185,69521,100652
5.09,509,10351,1,0,0,0,825.65308,906.60095,1597.97668,1750.64087,-0.08325,-0.08325,0.99332,-1.365,0.228,-0.018,6185,69521,100652
5.1,510,10352,1,0,0,0,825.65308,906.60095,1598.05298,1750.2594,-0.08167,-0.08863,0.99234,-1.628,0.28,-0.14,6183,69521,100649
5.11,511,10353,1,0,0,0,825.65308,906.60095,1597.90039,1750.33569,-0.08045,-0.0885,0.99307,-1.645,0.35,-0.158,6183,69521,100649
5.12,512,10354,1,0,0,0,825.65308,906.60095,1598.12927,1750.56458,-0.0813,-0.08875,0.99356,-1.54,0.368,-0.035,6185,69524,100649
5.13,513,10355,1,0,0,0,825.65308,906.60095,1598.05298,1750.10681,-0.08142,-0.08777,0.99527,-1.488,0.455,-0.158,6185,69524,100649
5.14,514,10356,1,0,0,0,825.65308,906.60095,1597.90039,1750.33569,-0.08203,-0.08728,0.9949,-1.4,0.455,-0.263,6182,69518,100647
5.15,515,10357,1,0,0,0,825.65308,906.60095,1597.97668,1750.33569,-0.08228,-0.08741,0.99222,-1.54,0.56,-0.14,6182,69518,100647
5.16,516,10358,1,0,0,0,825.65308,906.60095,1597.97668,1750.2594,-0.08313,-0.08741,0.99429,-1.645,0.525,-0.105,6181,69519,100650
5.17,517,10359,1,0,0,0,825.65308,906.60095,1598.05298,1750.2594,-0.08399,-0.08533,0.99478,-1.593,0.56,-0.088,6181,69519,100650
5.18,518,10360,1,0,0,0,825.88196,906.60095,1598.05298,1750.56458,-0.08496,-0.08789,0.9949,-1.715,0.455,0.175,6181,69519,100651
5.19,519,10361,1,0,0,0,825.88196,906.60095,1597.7478,1750.2594,-0.08374,-0.08887,0.99295,-1.68,0.473,0.035,6181,69519,100651
5.2,520,10362,1,0,0,0,825.88196,906.60095,1597.97668,1750.33569,-0.08191,-0.08789,0.99539,-1.645,0.315,-0.053,6180,69516,100644
5.21,521,10363,1,0,0,0,825.88196,906.60095,1598.12927,1750.18311,-0.08252,-0.08875,0.99478,-1.435,0.315,0.088,6180,69516,100644
5.22,522,10364,1,0,0,0,825.88196,906.60095,1598.05298,1749.95422,-0.08301,-0.08814,0.9938,-1.295,0.298,0.053,6177,69517,100649
5.23,523,10365,1,0,0,0,825.88196,906.67725,1597.90039,1750.18311,-0.08313,-0.08789,0.99405,-1.47,0.438,-0.175,6177,69517,100649
5.24,524,10366,1,0,0,0,825.88196,906.67725,1597.97668,1749.95422,-0.08313,-0.08911,0.99271,-1.54,0.42,-0.105,6180,69514,100649
5.25,525,10367,1,0,0,0,825.88196,906.67725,1597.90039,1749.95422,-0.08094,-0.09021,0.99283,-1.243,0.333,-0.14,6180,69514,100649
5.26,526,10368,1,0,0,0,825.88196,906.67725,1597.97668,1750.03052,-0.08203,-0.08716,0.99539,-1.383,0.403,-0.158,6180,69517,100651
5.27,527,10369,1,0,0,0,825.88196,906.67725,1598.20557,1750.41199,-0.08277,-0.08777,0.99478,-1.19,0.403,-0.14,6180,69517,100651
5.28,528,10370,1,0,0,0,825.72937,906.67725,1597.90039,1750.10681,-0.08374,-0.08472,0.99625,-1.12,0.455,0.105,6183,69517,100649
5.29,529,10371,1,0,0,0,825.72937,906.67725,1597.8241,1750.33569,-0.08179,-0.08631,0.9938,-1.33,0.525,0.0,6183,69517,100649
5.3,530,10372,1,0,0,0,825.72937,906.67725,1598.12927,1750.33569,-0.08142,-0.08667,0.99234,-1.47,0.49,-0.018,6182,69514,100656
5.31,531,10373,1,0,0,0,825.72937,906.67725,1598.05298,1750.03052,-0.08338,-0.08924,0.99551,-1.575,0.42,0.018,6182,69514,100656
5.32,532,10374,1,0,0,0,825.72937,906.67725,1597.90039,1750.10681,-0.08277,-0.09143,0.99466,-1.47,0.333,0.175,6184,69516,100653
5.33,533,10375,1,0,0,0,825.72937,906.52466,1598.43445,1750.18311,-0.08191,-0.09009,0.99271,-1.348,0.333,0.035,6184,69516,100653
5.34,534,10376,1,0,0,0,825.72937,906.52466,1597.7478,1750.2594,-0.08155,-0.08985,0.99185,-1.313,0.228,-0.123,6183,69519,100658
5.35,535,10377,1,0,0,0,825.72937,906.52466,1597.7478,1750.10681,-0.0813,-0.0907,0.99429,-1.295,0.368,-0.088,6183,69519,100658
5.36,536,10378,1,0,0,0,825.72937,906.52466,1598.12927,1750.64087,-0.08435,-0.08838,0.99539,-1.155,0.42,-0.14,6185,69520,100663
5.37,537,10379,1,0,0,0,825.72937,906.52466,1597.8241,1750.18311,-0.08399,-0.08741,0.99368,-1.033,0.368,-0.07,6185,69520,100663
5.38,538,10380,1,0,0,0,825.65308,906.52466,1598.05298,1750.03052,-0.0824,-0.08679,0.99161,-1.033,0.245,0.035,6186,69521,100665
5.39,539,10381,1,0,0,0,825.65308,906.52466,1597.67151,1750.18311,-0.08191,-0.0885,0.99222,-1.068,0.298,-0.105,6186,69521,100665
5.4,540,10382,1,0,0,0,825.65308,906.52466,1597.7478,1750.10681,-0.08252,-0.08741,0.99319,-1.12,0.35,-0.158,6188,69525,100674
5.41,541,10383,1,0,0,0,825.65308,906.52466,1597.8241,1750.10681,-0.08325,-0.08765,0.99319,-1.033,0.298,-0.438,6188,69525,100674
5.42,542,10384,1,0,0,0,825.65308,906.52466,1598.05298,1750.56458,-0.0824,-0.08814,0.99393,-0.928,0.298,-0.228,6189,69523,100675
5.43,543,10385,1,0,0,0,825.65308,906.44836,1597.97668,1750.33569,-0.08228,-0.08875,0.99405,-0.945,0.368,-0.14,6189,69523,100675
5.44,544,10386,1,0,0,0,825.65308,906.44836,1597.8241,1750.10681,-0.08142,-0.09021,0.99197,-0.805,0.333,-0.228,6191,69522,100678
5.45,545,10387,1,0,0,0,825.65308,906.44836,1598.05298,1750.41199,-0.08277,-0.08777,0.99405,-0.735,0.385,-0.263,6191,69522,100678
5.46,546,10388,1,0,0,0,825.65308,906.44836,1597.90039,1750.2594,-0.08191,-0.08765,0.99564,-0.823,0.21,-0.28,6190,69523,100676
5.47,547,10389,1,0,0,0,825.65308,906.44836,1597.97668,1750.18311,-0.08203,-0.08618,0.99319,-0.613,0.35,-0.263,6190,69523,100676
5.48,548,10390,1,0,0,0,825.72937,906.44836,1598.05298,1750.18311,-0.08191,-0.08704,0.99283,-0.788,0.368,-0.315,6192,69522,100682
5.49,549,10391,1,0,0,0,825.72937,906.44836,1597.7478,1750.10681,-0.08069,-0.08679,0.99246,-0.84,0.455,-0.298,6192,69522,100682
5.5,550,10392,1,0,0,0,825.72937,906.44836,1597.97668,1750.2594,-0.08252,-0.0857,0.99515,-1.015,0.455,-0.298,6197,69524,100684
5.51,551,10393,1,0,0,0,825.72937,906.44836,1598.28186,1750.2594,-0.08325,-0.08667,0.99393,-1.05,0.298,-0.385,6197,69524,100684
5.52,552,10394,1,0,0,0,825.72937,906.44836,1597.97668,1749.95422,-0.08008,-0.09265,0.99344,-0.525,0.28,-0.525,6197,69528,100689
5.53,553,10395,1,0,0,0,825.72937,906.52466,1597.97668,1750.10681,-0.08386,-0.09351,0.99466,0.35,0.315,-0.368,6197,69528,100689
5.54,554,10396,1,0,0,0,825.72937,906.52466,1597.97668,1750.33569,-0.08374,-0.0824,0.99197,-0.525,0.42,-0.49,6200,69533,100694
5.55,555,10397,1,0,0,0,825.72937,906.52466,1597.90039,1750.18311,-0.08484,-0.08435,0.99466,-0.525,0.438,-0.333,6200,69533,100694
5.56,556,10398,1,0,0,0,825.72937,906.52466,1597.97668,1750.03052,-0.08081,-0.08167,0.99344,-0.613,0.175,-0.228,6201,69534,100702
5.57,557,10399,1,0,0,0,825.72937,906.52466,1597.97668,1750.33569,-0.08228,-0.08557,0.99478,-1.278,0.35,-0.158,6201,69534,100702
5.58,558,10400,1,0,0,0,825.72937,906.52466,1597.97668,1749.87793,-0.08277,-0.0857,0.9938,-1.453,0.455,-0.228,6201,69533,100701
5.59,559,10401,1,0,0,0,825.72937,906.52466,1597.7478,1750.03052,-0.0802,-0.08679,0.99246,-1.47,0.473,-0.333,6201,69533,100701
5.6,560,10402,1,0,0,0,825.72937,906.52466,1598.05298,1750.2594,-0.08216,-0.08728,0.99625,-1.435,0.525,-0.333,6205,69531,100703
5.61,561,10403,1,0,0,0,825.72937,906.52466,1597.90039,1750.03052,-0.08191,-0.08643,0.99368,-1.348,0.403,-0.175,6205,69531,100703
5.62,562,10404,1,0,0,0,825.72937,906.52466,1597.90039,1750.18311,-0.08289,-0.08509,0.99307,-1.418,0.455,-0.158,6204,69533,100706
5.63,563,10405,1,0,0,0,825.72937,906.67725,1598.35815,1749.87793,-0.08399,-0.08448,0.99405,-1.54,0.508,0.018,6204,69533,100706
5.64,564,10406,1,0,0,0,825.72937,906.67725,1597.8241,1750.18311,-0.08289,-0.08594,0.9949,-1.663,0.508,-0.21,6209,69536,100711
5.65,565,10407,1,0,0,0,825.72937,906.67725,1597.90039,1750.10681,-0.08203,-0.08631,0.996,-1.698,0.473,-0.158,6209,69536,100711
5.66,566,10408,1,0,0,0,825.72937,906.67725,1598.05298,1750.18311,-0.08191,-0.08753,0.99466,-1.575,0.385,-0.14,6212,69538,100714
5.67,567,10409,1,0,0,0,825.72937,906.67725,1597.90039,1750.33569,-0.08325,-0.08765,0.99515,-1.4,0.473,-0.105,6212,69538,100714
5.68,568,10410,1,0,0,0,825.72937,906.67725,1597.97668,1750.03052,-0.08411,-0.08741,0.99466,-1.225,0.385,-0.193,6216,69535,100716
5.69,569,10411,1,0,0,0,825.72937,906.67725,1597.7478,1750.41199,-0.0835,-0.08643,0.99283,-1.26,0.298,-0.35,6216,69535,100716
5.7,570,10412,1,0,0,0,825.72937,906.67725,1597.8241,1750.03052,-0.08118,-0.08716,0.99161,-1.278,0.42,-0.403,6215,69539,100720
5.71,571,10413,1,0,0,0,825.72937,906.67725,1597.8241,1750.33569,-0.08277,-0.08826,0.99393,-1.348,0.438,-0.403,6215,69539,100720
5.72,572,10414,1,0,0,0,825.72937,906.67725,1597.97668,1750.18311,-0.08325,-0.08728,0.99442,-1.4,0.333,-0.175,6217,69536,100722
5.73,573,10415,1,0,0,0,825.72937,906.37207,1597.97668,1750.48828,-0.08118,-0.08728,0.99332,-1.26,0.263,-0.228,6217,69536,100722
5.74,574,10416,1,0,0,0,825.72937,906.37207,1597.8241,1750.10681,-0.0835,-0.08716,0.99527,-1.33,0.368,-0.175,6218,69539,100724
5.75,575,10417,1,0,0,0,825.72937,906.37207,1597.8241,1749.95422,-0.08118,-0.08618,0.99368,-1.435,0.368,-0.228,6218,69539,100724
5.76,576,10418,1,0,0,0,825.72937,906.37207,1597.90039,1749.87793,-0.0824,-0.08704,0.99258,-1.365,0.385,-0.228,6221,69539,100727
5.77,577,10419,1,0,0,0,825.72937,906.37207,1597.90039,1749.80164,-0.08264,-0.08716,0.99429,-1.365,0.35,-0.14,6221,69539,100727
5.78,578,10420,1,0,0,0,825.65308,906.37207,1598.12927,1750.10681,-0.08301,-0.0857,0.99332,-1.33,0.455,-0.368,6223,69541,100729
5.79,579,10421,1,0,0,0,825.65308,906.37207,1597.67151,1749.72534,-0.0813,-0.08618,0.99246,-1.4,0.385,-0.105,6223,69541,100729
5.8,580,10422,1,0,0,0,825.65308,906.37207,1597.90039,1749.80164,-0.08142,-0.08728,0.99295,-1.453,0.333,-0.088,6226,69538,100734
5.81,581,10423,1,0,0,0,825.65308,906.37207,1597.90039,1749.72534,-0.08008,-0.08753,0.99332,-1.488,0.368,0.0,6226,69538,100734
5.82,582,10424,1,0,0,0,825.65308,906.37207,1597.8241,1749.64905,-0.08264,-0.08606,0.99551,-1.488,0.438,-0.088,6227,69538,100732
5.83,583,10425,1,0,0,0,825.65308,906.44836,1597.8241,1749.87793,-0.08289,-0.08972,0.99429,-1.558,0.473,-0.035,6227,69538,100732
5.84,584,10426,1,0,0,0,825.65308,906.44836,1597.8241,1749.87793,-0.08399,-0.08936,0.99222,-1.523,0.385,-0.123,6228,69540,100732
5.85,585,10427,1,0,0,0,825.65308,906.44836,1597.8241,1750.03052,-0.08338,-0.09082,0.99271,-1.383,0.368,-0.053,6228,69540,100732
5.86,586,10428,1,0,0,0,825.65308,906.44836,1597.97668,1749.80164,-0.08423,-0.0885,0.99295,-1.138,0.368,-0.07,6231,69537,100735
5.87,587,10429,1,0,0,0,825.65308,906.44836,1597.97668,1750.2594,-0.08264,-0.08386,0.99405,-0.945,0.298,-0.018,6231,69537,100735
5.88,588,10430,1,0,0,0,825.57678,906.44836,1597.8241,1749.80164,-0.07935,-0.08423,0.99344,-1.663,0.438,0.018,6232,69538,100738
5.89,589,10431,1,0,0,0,825.57678,906.44836,1597.59521,1750.03052,-0.08057,-0.0857,0.99612,-1.803,0.49,0.053,6232,69538,100738
5.9,590,10432,1,0,0,0,825.57678,906.44836,1597.90039,1749.95422,-0.08106,-0.08863,0.99442,-1.925,0.683,0.035,6237,69537,100743
5.91,591,10433,1,0,0,0,825.57678,906.44836,1597.7478,1749.95422,-0.08435,-0.09009,0.99527,-2.013,0.613,0.088,6237,69537,100743
5.92,592,10434,1,0,0,0,825.57678,906.44836,1597.90039,1749.95422,-0.08423,-0.09119,0.99368,-1.698,0.473,0.175,6237,69541,100740
5.93,593,10435,1,0,0,0,825.57678,906.52466,1598.35815,1750.03052,-0.08533,-0.09058,0.99307,-1.085,0.368,-0.193,6237,69541,100740
5.94,594,10436,1,0,0,0,825.57678,906.52466,1597.67151,1749.95422,-0.08545,-0.08777,0.99283,-0.805,0.228,-0.315,6236,69538,100740
5.95,595,10437,1,0,0,0,825.57678,906.52466,1597.59521,1749.95422,-0.0824,-0.08728,0.99222,-0.805,0.245,-0.21,6236,69538,100740
5.96,596,10438,1,0,0,0,825.57678,906.52466,1597.8241,1750.2594,-0.08216,-0.08704,0.99332,-0.928,0.14,0.053,6237,69533,100729
5.97,597,10439,1,0,0,0,825.57678,906.52466,1597.67151,1749.87793,-0.07959,-0.08826,0.99319,-1.05,0.193,-0.053,6237,69533,100729
5.98,598,10440,1,0,0,0,825.50049,906.52466,1597.90039,1749.95422,-0.07996,-0.08875,0.99661,-0.928,0.21,-0.175,6236,69531,100724
5.99,599,10441,1,0,0,0,825.50049,906.52466,1597.59521,1750.10681,-0.08203,-0.08728,0.99673,-0.928,0.175,-0.333,6236,69531,100724
6.0,600,10442,1,0,0,0,825.50049,906.52466,1597.8241,1749.95422,-0.08203,-0.08679,0.99417,-1.033,0.42,-0.228,6232,69529,100718
6.01,601,10443,1,0,0,0,825.50049,906.52466,1597.8241,1750.03052,-0.0835,-0.08741,0.99136,-0.963,0.473,-0.193,6232,69529,100718
6.02,602,10444,1,0,0,0,825.50049,906.52466,1597.97668,1750.18311,-0.08301,-0.08741,0.99283,-1.015,0.438,-0.228,6229,69531,100717
6.03,603,10445,1,0,0,0,825.50049,906.52466,1597.8241,1750.03052,-0.08521,-0.08741,0.99393,-0.875,0.473,-0.053,6229,69531,100717
6.04,604,10446,1,0,0,0,825.50049,906.52466,1597.8241,1750.03052,-0.08557,-0.08863,0.99454,-1.05,0.455,-0.263,6226,69523,100712
6.05,605,10447,1,0,0,0,825.50049,906.52466,1597.97668,1750.33569,-0.08472,-0.09058,0.99283,-1.05,0.385,-0.403,6226,69523,100712
6.06,606,10448,1,0,0,0,825.50049,906.52466,1597.8241,1749.95422,-0.08301,-0.09082,0.99295,-0.84,0.28,-0.473,6221,69523,100709
6.07,607,10449,1,0,0,0,825.50049,906.52466,1597.97668,1749.95422,-0.08386,-0.08997,0.99637,-0.42,0.245,-0.508,6221,69523,100709
6.08,608,10450,1,0,0,0,825.72937,906.52466,1597.90039,1750.10681,-0.08252,-0.08557,0.99454,-0.263,0.21,-0.718,6217,69521,100707
6.09,609,10451,1,0,0,0,825.72937,906.52466,1597.67151,1749.87793,-0.08277,-0.08509,0.99442,-0.368,0.193,-0.683,6217,69521,100707
6.1,610,10452,1,0,0,0,825.72937,906.52466,1597.8241,1749.95422,-0.08155,-0.08509,0.99319,-0.455,0.228,-0.595,6216,69517,100703
6.11,611,10453,1,0,0,0,825.72937,906.52466,1598.05298,1750.10681,-0.08191,-0.08386,0.99515,-0.77,0.28,-0.473,6216,69517,100703
6.12,612,10454,1,0,0,0,825.72937,906.52466,1597.97668,1749.95422,-0.08338,-0.08496,0.99368,-0.753,0.315,-0.753,6213,69519,100699
6.13,613,10455,1,0,0,0,825.72937,906.44836,1597.90039,1749.95422,-0.08179,-0.08448,0.99405,-0.753,0.315,-0.21,6213,69519,100699
6.14,614,10456,1,0,0,0,825.72937,906.44836,1597.97668,1750.03052,-0.08179,-0.08448,0.99405,-0.753,0.315,-0.21,6211,69511,100697
6.15,615,10457,1,0,0,0,825.72937,906.44836,1597.97668,1749.95422,-0.08118,-0.08313,0.99222,-0.7,0.245,-0.368,6211,69511,100697
6.16,616,10458,1,0,0,0,825.72937,906.44836,1597.90039,1750.10681,-0.08179,-0.08264,0.99307,-0.928,0.28,-0.403,6206,69508,100693
6.17,617,10459,1,0,0,0,825.72937,906.44836,1597.90039,1750.10681,-0.07959,-0.08399,0.99368,-1.138,0.315,-0.175,6206,69508,100693
6.18,618,10460,1,0,0,0,825.72937,906.44836,1597.90039,1749.87793,-0.08094,-0.08472,0.99576,-1.365,0.333,-0.105,6203,69505,100687
6.19,619,10461,1,0,0,0,825.72937,906.44836,1597.67151,1750.10681,-0.08045,-0.08789,0.99295,-1.453,0.455,-0.035,6203,69505,100687
6.2,620,10462,1,0,0,0,825.72937,906.44836,1598.05298,1750.41199,-0.08301,-0.08875,0.99454,-1.26,0.595,-0.193,6202,69501,100685
6.21,621,10463,1,0,0,0,825.72937,906.44836,1597.90039,1750.03052,-0.08484,-0.08509,0.99637,-0.893,0.49,-0.088,6202,69501,100685
6.22,622,10464,1,0,0,0,825.72937,906.44836,1597.90039,1750.03052,-0.08423,-0.08203,0.99271,-0.875,0.385,-0.245,6202,69499,100689
6.23,623,10465,1,0,0,0,825.72937,906.52466,1598.28186,1749.95422,-0.08484,-0.08118,0.99295,-1.033,0.403,0.0,6202,69499,100689
6.24,624,10466,1,0,0,0,825.72937,906.52466,1597.8241,1750.03052,-0.08191,-0.08301,0.991,-1.173,0.21,-0.053,6200,69501,100688
6.25,625,10467,1,0,0,0,825.72937,906.52466,1597.90039,1750.2594,-0.08216,-0.08618,0.99515,-1.61,0.333,0.035,6200,69501,100688
6.26,626,10468,1,0,0,0,825.72937,906.52466,1597.90039,1750.10681,-0.0824,-0.08533,0.9971,-1.61,0.35,-0.105,6199,69498,100684
6.27,627,10469,1,0,0,0,825.72937,906.52466,1597.90039,1749.87793,-0.07996,-0.08679,0.99612,-1.523,0.298,-0.018,6199,69498,100684
6.28,628,10470,1,0,0,0,825.65308,906.52466,1597.90039,1749.87793,-0.07923,-0.08545,0.99344,-1.418,0.298,-0.105,6197,69496,100684
6.29,629,10471,1,0,0,0,825.65308,906.52466,1597.7478,1750.18311,-0.08069,-0.08557,0.99454,-1.505,0.35,0.018,6197,69496,100684
6.3,630,10472,1,0,0,0,825.65308,906.52466,1597.8241,1749.80164,-0.08386,-0.08411,0.99551,-1.488,0.385,-0.245,6197,69495,100679
6.31,631,10473,1,0,0,0,825.65308,906.52466,1597.8241,1749.95422,-0.08155,-0.08496,0.9921,-1.488,0.455,-0.088,6197,69495,100679
6.32,632,10474,1,0,0,0,825.65308,906.52466,1597.97668,1749.95422,-0.08289,-0.08509,0.99295,-1.558,0.473,0.088,6195,69492,100682
6.33,633,10475,1,0,0,0,825.65308,906.37207,1597.8241,1749.87793,-0.0835,-0.08435,0.99442,-1.75,0.543,0.0,6195,69492,100682
6.34,634,10476,1,0,0,0,825.65308,906.37207,1597.90039,1749.80164,-0.08325,-0.08509,0.99478,-1.89,0.368,0.07,6195,69492,100679
6.35,635,10477,1,0,0,0,825.65308,906.37207,1597.90039,1749.87793,-0.08362,-0.08814,0.99442,-1.628,0.315,0.14,6195,69492,100679
6.36,636,10478,1,0,0,0,825.65308,906.37207,1597.90039,1749.64905,-0.0824,-0.08814,0.99295,-1.47,0.263,0.088,6195,69492,100679
6.37,637,10479,1,0,0,0,825.65308,906.37207,1597.90039,1749.72534,-0.08264,-0.08802,0.99258,-1.418,0.403,0.105,6194,69489,100677
6.38,638,10480,1,0,0,0,825.72937,906.37207,1597.97668,1749.87793,-0.08411,-0.08728,0.99283,-1.383,0.508,0.0,6195,69485,100672
6.39,639,10481,1,0,0,0,825.72937,906.37207,1597.8241,1749.87793,-0.08277,-0.08618,0.99576,-1.383,0.368,-0.14,6195,69485,100672
6.4,640,10482,1,0,0,0,825.72937,906.37207,1597.97668,1749.87793,-0.0835,-0.08716,0.9949,-1.47,0.455,-0.315,6195,69485,100672
6.41,641,10483,1,0,0,0,825.72937,906.37207,1598.05298,1749.95422,-0.08081,-0.08545,0.99149,-1.26,0.368,-0.158,6195,69483,100671
6.42,642,10484,1,0,0,0,825.72937,906.37207,1597.97668,1749.87793,-0.08203,-0.08509,0.9921,-1.155,0.368,-0.088,6195,69483,100671
6.43,643,10485,1,0,0,0,825.72937,906.44836,1597.97668,1749.87793,-0.08264,-0.08521,0.99344,-1.243,0.42,0.053,6194,69485,100671
6.44,644,10486,1,0,0,0,825.72937,906.44836,1597.8241,1750.33569,-0.08179,-0.08582,0.99271,-1.243,0.315,-0.018,6194,69485,100671
6.45,645,10487,1,0,0,0,825.72937,906.44836,1597.90039,1750.03052,-0.08325,-0.08545,0.99576,-1.173,0.368,0.018,6194,69482,100681
6.46,646,10488,1,0,0,0,825.72937,906.44836,1597.7478,1749.87793,-0.08252,-0.08704,0.9949,-1.383,0.28,-0.123,6194,69482,100681
6.47,647,10489,1,0,0,0,825.72937,906.44836,1597.90039,1749.87793,-0.08057,-0.08838,0.99283,-1.453,0.403,-0.105,6196,69481,100673
6.48,648,10490,1,0,0,0,825.72937,906.44836,1597.97668,1749.80164,-0.08179,-0.08704,0.99405,-1.26,0.473,-0.14,6197,69480,100676
6.49,649,10491,1,0,0,0,825.72937,906.44836,1597.90039,1749.87793,-0.08216,-0.08643,0.99307,-1.19,0.35,-0.175,6197,69480,100676
6.5,650,10492,1,0,0,0,825.72937,906.44836,1597.8241,1749.95422,-0.08374,-0.08631,0.9938,-1.033,0.403,-0.07,6197,69480,100676
6.51,651,10493,1,0,0,0,825.72937,906.44836,1597.8241,1749.87793,-0.08301,-0.08386,0.99551,-1.033,0.438,-0.088,6200,69481,100682
6.52,652,10494,1,0,0,0,825.72937,906.44836,1597.7478,1749.80164,-0.08313,-0.0857,0.99466,-1.015,0.403,-0.035,6200,69481,100682
6.53,653,10495,1,0,0,0,825.72937,906.52466,1598.51074,1749.95422,-0.08203,-0.08545,0.99307,-1.383,0.385,-0.245,6199,69480,100684
6.54,654,10496,1,0,0,0,825.72937,906.52466,1597.67151,1749.64905,-0.08094,-0.08533,0.99234,-1.365,0.28,-0.193,6199,69480,100684
6.55,655,10497,1,0,0,0,825.72937,906.52466,1597.8241,1750.03052,-0.08167,-0.08521,0.99405,-1.138,0.298,-0.158,6198,69482,100685
6.56,656,10498,1,0,0,0,825.72937,906.52466,1597.97668,1750.18311,-0.0824,-0.08557,0.99454,-1.488,0.333,-0.158,6198,69482,100685
6.57,657,10499,1,0,0,0,825.72937,906.52466,1597.8241,1749.87793,-0.08179,-0.08606,0.99234,-1.47,0.368,-0.088,6201,69483,100687
6.58,658,10500,1,0,0,0,825.72937,906.52466,1597.97668,1749.80164,-0.08106,-0.08594,0.9921,-1.225,0.385,-0.21,6201,69479,100688
6.59,659,10501,1,0,0,0,825.72937,906.52466,1597.8241,1749.87793,-0.08216,-0.08631,0.99356,-1.348,0.473,-0.315,6201,69479,100688
6.6,660,10502,1,0,0,0,825.72937,906.52466,1597.8241,1749.72534,-0.08362,-0.0857,0.99393,-1.383,0.403,-0.333,6201,69479,100688
6.61,661,10503,1,0,0,0,825.72937,906.52466,1597.90039,1749.80164,-0.0835,-0.08667,0.99503,-1.313,0.333,-0.158,6205,69488,100695
6.62,662,10504,1,0,0,0,825.72937,906.52466,1598.12927,1750.41199,-0.08228,-0.08753,0.99246,-1.068,0.298,-0.228,6205,69488,100695
6.63,663,10505,1,0,0,0,825.72937,906.37207,1597.8241,1749.80164,-0.08191,-0.08741,0.99295,-1.068,0.368,-0.228,6202,69482,100693
6.64,664,10506,1,0,0,0,825.72937,906.37207,1597.67151,1749.80164,-0.08179,-0.08618,0.9938,-0.928,0.245,-0.315,6202,69482,100693
6.65,665,10507,1,0,0,0,825.72937,906.37207,1597.97668,1749.95422,-0.08252,-0.08582,0.99564,-0.84,0.263,-0.298,6205,69484,100691
6.66,666,10508,1,0,0,0,825.72937,906.37207,1597.8241,1749.87793,-0.08289,-0.08472,0.9949,-0.91,0.35,-0.28,6205,69484,100691
6.67,667,10509,1,0,0,0,825.72937,906.37207,1597.90039,1749.80164,-0.08106,-0.08496,0.99344,-0.998,0.21,-0.14,6206,69483,100692
6.68,668,10510,1,0,0,0,825.65308,906.37207,1597.97668,1749.87793,-0.08216,-0.08399,0.99576,-1.19,0.385,-0.298,6207,69485,100695
6.69,669,10511,1,0,0,0,825.65308,906.37207,1597.59521,1749.95422,-0.08216,-0.08448,0.996,-1.173,0.42,-0.21,6207,69485,100695
6.7,670,10512,1,0,0,0,825.65308,906.37207,1597.90039,1749.95422,-0.0835,-0.08509,0.99527,-1.173,0.403,-0.263,6207,69485,100695
6.71,671,10513,1,0,0,0,825.65308,906.37207,1597.97668,1750.2594,-0.08252,-0.08679,0.99185,-1.19,0.385,-0.438,6211,69485,100699
6.72,672,10514,1,0,0,0,825.65308,906.37207,1597.8241,1749.87793,-0.08252,-0.08496,0.99405,-1.085,0.35,-0.28,6211,69485,100699
6.73,673,10515,1,0,0,0,825.65308,906.44836,1597.90039,1749.57275,-0.08289,-0.0846,0.99405,-1.12,0.333,-0.28,6209,69487,100705
6.74,674,10516,1,0,0,0,825.65308,906.44836,1597.7478,1750.18311,-0.08155,-0.08557,0.99283,-1.155,0.368,-0.28,6209,69487,100705
6.75,675,10517,1,0,0,0,825.65308,906.44836,1597.90039,1749.80164,-0.08289,-0.08545,0.9938,-1.103,0.28,-0.263,6213,69488,100709
6.76,676,10518,1,0,0,0,825.65308,906.44836,1597.8241,1749.80164,-0.08008,-0.08545,0.99197,-1.155,0.35,-0.263,6213,69488,100709
6.77,677,10519,1,0,0,0,825.65308,906.44836,1597.8241,1749.95422,-0.08264,-0.08509,0.9938,-1.348,0.333,-0.175,6216,69492,100714
6.78,678,10520,1,0,0,0,825.65308,906.44836,1598.05298,1749.64905,-0.08191,-0.08582,0.99258,-1.435,0.315,-0.158,6216,69492,100714
6.79,679,10521,1,0,0,0,825.65308,906.44836,1597.7478,1749.87793,-0.08167,-0.08472,0.99234,-1.435,0.315,-0.368,6219,69492,100711
6.8,680,10522,1,0,0,0,825.65308,906.44836,1597.8241,1750.03052,-0.08167,-0.08533,0.99576,-1.383,0.315,-0.315,6219,69492,100711
6.81,681,10523,1,0,0,0,825.65308,906.44836,1597.8241,1749.95422,-0.08277,-0.08411,0.99612,-1.138,0.298,-0.158,6219,69492,100717
6.82,682,10524,1,0,0,0,825.65308,906.44836,1597.8241,1749.95422,-0.08191,-0.08374,0.99222,-1.33,0.333,-0.28,6219,69492,100717
6.83,683,10525,1,0,0,0,825.65308,906.52466,1598.20557,1749.95422,-0.08155,-0.0846,0.99283,-1.365,0.228,-0.14,6219,69494,100719
6.84,684,10526,1,0,0,0,825.65308,906.52466,1597.51892,1749.72534,-0.08179,-0.08399,0.99478,-1.488,0.368,-0.07,6219,69494,100719
6.85,685,10527,1,0,0,0,825.65308,906.52466,1597.8241,1749.72534,-0.08252,-0.08448,0.99466,-1.575,0.385,0.053,6223,69491,100722
6.86,686,10528,1,0,0,0,825.65308,906.52466,1597.7478,1749.80164,-0.08216,-0.08509,0.99454,-1.558,0.403,0.14,6223,69491,100722
6.87,687,10529,1,0,0,0,825.65308,906.52466,1597.7478,1750.03052,-0.07947,-0.08557,0.99295,-1.61,0.42,0.228,6220,69494,100724
6.88,688,10530,1,0,0,0,825.72937,906.52466,1597.7478,1749.80164,-0.08118,-0.08643,0.99393,-1.61,0.403,0.018,6220,69494,100724
6.89,689,10531,1,0,0,0,825.72937,906.52466,1597.7478,1750.10681,-0.08484,-0.08411,0.99649,-1.628,0.42,-0.053,6222,69493,100722
6.9,690,10532,1,0,0,0,825.72937,906.52466,1597.8241,1749.87793,-0.08313,-0.08496,0.99393,-1.453,0.315,-0.035,6222,69493,100722
6.91,691,10533,1,0,0,0,825.72937,906.52466,1597.90039,1749.57275,-0.08338,-0.08484,0.99405,-1.505,0.438,-0.123,6226,69494,100723
6.92,692,10534,1,0,0,0,825.72937,906.52466,1597.90039,1749.80164,-0.08167,-0.0857,0.99197,-1.418,0.315,-0.07,6226,69494,100723
6.93,693,10535,1,0,0,0,825.72937,906.29578,1597.67151,1749.72534,-0.08289,-0.0846,0.99258,-1.523,0.385,0.035,6225,69490,100723
6.94,694,10536,1,0,0,0,825.72937,906.29578,1597.67151,1749.57275,-0.08399,-0.08448,0.99405,-1.663,0.368,0.123,6225,69490,100723
6.95,695,10537,1,0,0,0,825.72937,906.29578,1597.7478,1749.57275,-0.08094,-0.08631,0.99417,-1.82,0.333,0.105,6228,69493,100725
6.96,696,10538,1,0,0,0,825.72937,906.29578,1597.8241,1749.72534,-0.0813,-0.08618,0.99564,-1.75,0.438,0.21,6228,69493,100725
6.97,697,10539,1,0,0,0,825.72937,906.29578,1597.8241,1749.57275,-0.08142,-0.0857,0.99539,-1.855,0.403,0.228,6229,69491,100715
6.98,698,10540,1,0,0,0,825.65308,906.29578,1598.28186,1749.80164,-0.08374,-0.08716,0.99307,-1.733,0.42,0.105,6229,69491,100715
6.99,699,10541,1,0,0,0,825.65308,906.29578,1597.7478,1749.80164,-0.0835,-0.08789,0.99429,-1.663,0.438,-0.018,6232,69489,100717
7.0,700,10542,1,0,0,0,825.65308,906.29578,1597.8241,1749.80164,-0.08313,-0.08802,0.99075,-1.558,0.525,-0.088,6232,69489,100717
7.01,701,10543,1,0,0,0,825.65308,906.29578,1597.8241,1749.87793,-0.08277,-0.08484,0.99295,-1.47,0.385,-0.123,6234,69492,100720
7.02,702,10544,1,0,0,0,825.65308,906.29578,1597.67151,1749.80164,-0.08106,-0.08338,0.99246,-1.418,0.438,-0.088,6234,69492,100720
7.03,703,10545,1,0,0,0,825.65308,906.37207,1597.90039,1749.72534,-0.08032,-0.08509,0.99588,-2.205,0.385,0.21,6236,69488,100720
7.04,704,10546,1,0,0,0,825.65308,906.37207,1597.59521,1750.10681,-0.08203,-0.08948,0.99405,-2.205,0.543,0.105,6236,69488,100720
7.05,705,10547,1,0,0,0,825.65308,906.37207,1597.59521,1749.64905,-0.08386,-0.09033,0.99295,-2.118,0.63,0.0,6239,69488,100718
7.06,706,10548,1,0,0,0,825.65308,906.37207,1597.7478,1749.64905,-0.08545,-0.0907,0.9949,-1.82,0.525,-0.053,6239,69488,100718
7.07,707,10549,1,0,0,0,825.65308,906.37207,1597.67151,1749.87793,-0.08484,-0.08863,0.99527,-1.505,0.455,0.018,6239,69483,100715
7.08,708,10550,1,0,0,0,825.57678,906.37207,1597.8241,1749.80164,-0.08533,-0.08753,0.99124,-1.155,0.28,-0.035,6239,69483,100715
7.09,709,10551,1,0,0,0,825.57678,906.37207,1597.51892,1749.80164,-0.0846,-0.08692,0.99222,-1.12,0.193,0.018,6241,69485,100721
7.1,710,10552,1,0,0,0,825.57678,906.37207,1597.67151,1749.72534,-0.08081,-0.08863,0.98965,-1.085,0.14,-0.28,6241,69485,100721
7.11,711,10553,1,0,0,0,825.57678,906.37207,1597.67151,1749.64905,-0.08045,-0.08826,0.9938,-0.963,0.088,-0.315,6237,69479,100712
7.12,712,10554,1,0,0,0,825.57678,906.37207,1597.67151,1749.72534,-0.08094,-0.08765,0.99649,-0.858,0.245,-0.245,6237,69479,100712
7.13,713,10555,1,0,0,0,825.57678,906.37207,1597.90039,1749.87793,-0.07935,-0.08753,0.99319,-0.945,0.193,-0.368,6236,69479,100705
7.14,714,10556,1,0,0,0,825.57678,906.37207,1597.51892,1749.72534,-0.08081,-0.08655,0.99283,-0.893,0.315,-0.14,6236,69479,100705
7.15,715,10557,1,0,0,0,825.57678,906.37207,1597.7478,1749.57275,-0.08301,-0.08484,0.99417,-0.823,0.385,-0.158,6234,69478,100696
7.16,716,10558,1,0,0,0,825.57678,906.37207,1597.97668,1749.80164,-0.08484,-0.08228,0.99478,-0.805,0.49,-0.228,6234,69478,100696
7.17,717,10559,1,0,0,0,825.57678,906.37207,1597.67151,1749.64905,-0.08411,-0.08277,0.99307,-1.085,0.525,-0.21,6230,69476,100696
7.18,718,10560,1,0,0,0,825.50049,906.37207,1597.7478,1750.10681,-0.08191,-0.08741,0.99234,-1.26,0.315,-0.105,6230,69476,100696
7.19,719,10561,1,0,0,0,825.50049,906.37207,1597.7478,1749.80164,-0.08167,-0.08814,0.99344,-1.295,0.42,-0.105,6223,69472,100690
7.2,720,10562,1,0,0,0,825.50049,906.37207,1597.90039,1749.95422,-0.08216,-0.08753,0.9949,-1.295,0.403,-0.123,6223,69472,100690
7.21,721,10563,1,0,0,0,825.50049,906.37207,1597.90039,1749.80164,-0.08118,-0.08863,0.99319,-1.173,0.438,-0.07,6221,69472,100688
7.22,722,10564,1,0,0,0,825.50049,906.37207,1597.97668,1750.03052,-0.08191,-0.08655,0.99466,-1.033,0.28,-0.035,6221,69472,100688
7.23,723,10565,1,0,0,0,825.50049,906.37207,1597.7478,1749.64905,-0.08203,-0.08423,0.99539,-1.015,0.35,-0.088,6217,69470,100683
7.24,724,10566,1,0,0,0,825.50049,906.37207,1597.59521,1749.64905,-0.08179,-0.08533,0.99405,-0.963,0.228,-0.123,6217,69470,100683
7.25,725,10567,1,0,0,0,825.50049,906.37207,1597.67151,1749.64905,-0.0824,-0.08533,0.99564,-1.12,0.263,-0.193,6218,69465,100681
7.26,726,10568,1,0,0,0,825.50049,906.37207,1597.8241,1749.57275,-0.08228,-0.0846,0.99393,-1.085,0.403,-0.175,6218,69465,100681
7.27,727,10569,1,0,0,0,825.50049,906.37207,1597.8241,1749.64905,-0.08203,-0.08509,0.99283,-1.208,0.473,-0.175,6209,69464,100676
7.28,728,10570,1,0,0,0,825.65308,906.37207,1597.97668,1749.64905,-0.08277,-0.08777,0.99551,-1.348,0.525,-0.21,6209,69464,100676
7.29,729,10571,1,0,0,0,825.65308,906.37207,1597.67151,1749.64905,-0.08411,-0.08802,0.99307,-1.155,0.473,-0.14,6207,69461,100675
7.3,730,10572,1,0,0,0,825.65308,906.37207,1597.7478,1749.64905,-0.08301,-0.08655,0.99368,-0.98,0.35,-0.193,6207,69461,100675
7.31,731,10573,1,0,0,0,825.65308,906.37207,1597.90039,1750.10681,-0.08118,-0.08594,0.99258,-0.945,0.263,-0.123,6202,69452,100665
7.32,732,10574,1,0,0,0,825.65308,906.37207,1597.7478,1749.64905,-0.08325,-0.08557,0.99405,-0.875,0.438,-0.263,6202,69452,100665
7.33,733,10575,1,0,0,0,825.65308,906.29578,1597.90039,1749.64905,-0.08228,-0.08741,0.99429,-0.945,0.385,-0.333,6200,69446,100662
7.34,734,10576,1,0,0,0,825.65308,906.29578,1597.67151,1750.03052,-0.08435,-0.08802,0.99539,-1.015,0.385,-0.228,6200,69446,100662
7.35,735,10577,1,0,0,0,825.65308,906.29578,1597.7478,1749.80164,-0.08325,-0.08509,0.99393,-0.648,0.298,-0.263,6195,69448,100661
7.36,736,10578,1,0,0,0,825.65308,906.29578,1597.8241,1749.80164,-0.08179,-0.08338,0.99356,-0.525,0.263,-0.315,6195,69448,100661
7.37,737,10579,1,0,0,0,825.65308,906.29578,1597.8241,1749.80164,-0.08325,-0.08167,0.9949,-0.578,0.158,-0.07,6199,69447,100665
7.38,738,10580,1,0,0,0,825.65308,906.29578,1597.90039,1749.72534,-0.08216,-0.08155,0.99283,-0.788,0.21,-0.158,6199,69447,100665
7.39,739,10581,1,0,0,0,825.65308,906.29578,1597.7478,1749.64905,-0.08008,-0.08411,0.99234,-1.295,0.228,-0.158,6194,69444,100658
7.4,740,10582,1,0,0,0,825.65308,906.29578,1597.90039,1750.10681,-0.0791,-0.08582,0.99478,-1.435,0.385,-0.07,6194,69444,100658
7.41,741,10583,1,0,0,0,825.65308,906.29578,1597.8241,1749.49646,-0.08081,-0.0857,0.99576,-1.435,0.385,-0.07,6193,69445,100662
7.42,742,10584,1,0,0,0,825.65308,906.29578,1597.90039,1749.57275,-0.08045,-0.08472,0.99612,-1.4,0.438,-0.14,6193,69445,100662
7.43,743,10585,1,0,0,0,825.65308,906.37207,1597.97668,1749.87793,-0.08167,-0.0857,0.99442,-1.558,0.473,0.0,6191,69442,100658
7.44,744,10586,1,0,0,0,825.65308,906.37207,1597.59521,1749.49646,-0.08081,-0.08521,0.99307,-1.523,0.403,-0.14,6191,69442,100658
7.45,745,10587,1,0,0,0,825.65308,906.37207,1597.8241,1749.49646,-0.08362,-0.0857,0.99417,-1.47,0.473,-0.053,6189,69442,100651
7.46,746,10588,1,0,0,0,825.65308,906.37207,1597.90039,1749.49646,-0.08386,-0.0857,0.996,-1.418,0.455,-0.053,6189,69442,100651
7.47,747,10589,1,0,0,0,825.65308,906.37207,1597.90039,1749.49646,-0.08264,-0.08631,0.99307,-1.435,0.368,-0.105,6188,69438,100653
7.48,748,10590,1,0,0,0,825.72937,906.37207,1597.8241,1749.57275,-0.08362,-0.08582,0.99197,-1.365,0.403,-0.123,6188,69438,100653
7.49,749,10591,1,0,0,0,825.72937,906.37207,1597.90039,1749.57275,-0.08289,-0.08606,0.99319,-1.4,0.298,0.018,6189,69437,100654
7.5,750,10592,1,0,0,0,825.72937,906.37207,1597.90039,1749.57275,-0.08155,-0.0857,0.99393,-1.313,0.35,0.018,6189,69437,100654
7.51,751,10593,1,0,0,0,825.72937,906.37207,1597.90039,1749.49646,-0.08228,-0.08655,0.99515,-1.418,0.385,-0.088,6186,69436,100650
7.52,752,10594,1,0,0,0,825.72937,906.37207,1597.97668,1749.72534,-0.08167,-0.08741,0.99222,-1.4,0.473,0.088,6186,69436,100650
7.53,753,10595,1,0,0,0,825.72937,906.21948,1597.8241,1749.49646,-0.08374,-0.08753,0.99417,-1.435,0.473,-0.053,6184,69434,100652
7.54,754,10596,1,0,0,0,825.72937,906.21948,1597.67151,1749.49646,-0.08228,-0.08728,0.99393,-1.313,0.438,-0.14,6184,69434,100652
7.55,755,10597,1,0,0,0,825.72937,906.21948,1597.97668,1749.80164,-0.0813,-0.08533,0.99564,-1.138,0.368,-0.053,6186,69431,100652
7.56,756,10598,1,0,0,0,825.72937,906.21948,1597.7478,1749.57275,-0.08191,-0.08118,0.9938,-1.383,0.438,-0.158,6186,69431,100652
7.57,757,10599,1,0,0,0,825.72937,906.21948,1597.8241,1749.64905,-0.08228,-0.08374,0.99368,-1.645,0.473,-0.07,6187,69434,100655
7.58,758,10600,1,0,0,0,825.72937,906.21948,1598.28186,1749.64905,-0.08325,-0.08643,0.99478,-1.75,0.525,-0.158,6187,69434,100655
7.59,759,10601,1,0,0,0,825.72937,906.21948,1597.59521,1749.57275,-0.08203,-0.0885,0.99393,-1.663,0.473,-0.07,6186,69431,100653
7.6,760,10602,1,0,0,0,825.72937,906.21948,1597.59521,1749.57275,-0.08289,-0.08826,0.99405,-1.4,0.525,0.035,6186,69431,100653
7.61,761,10603,1,0,0,0,825.72937,906.21948,1597.7478,1749.72534,-0.08313,-0.08643,0.99405,-1.295,0.403,-0.053,6186,69431,100652
7.62,762,10604,1,0,0,0,825.72937,906.21948,1597.67151,1749.57275,-0.08362,-0.08411,0.99503,-1.155,0.42,-0.07,6186,69431,100652
7.63,763,10605,1,0,0,0,825.72937,906.29578,1597.8241,1749.49646,-0.08277,-0.08313,0.99564,-1.243,0.473,-0.245,6189,69430,100653
7.64,764,10606,1,0,0,0,825.72937,906.29578,1597.51892,1750.10681,-0.08313,-0.08496,0.99417,-1.435,0.403,-0.455,6189,69430,100653
7.65,765,10607,1,0,0,0,825.72937,906.29578,1597.67151,1749.49646,-0.08167,-0.08741,0.99417,-1.418,0.42,-0.28,6191,69430,100659
7.66,766,10608,1,0,0,0,825.72937,906.29578,1597.67151,1749.49646,-0.08338,-0.08789,0.99258,-1.365,0.455,-0.298,6191,69430,100659
7.67,767,10609,1,0,0,0,825.72937,906.29578,1597.7478,1749.95422,-0.08264,-0.08753,0.99442,-1.12,0.385,-0.315,6191,69434,100663
7.68,768,10610,1,0,0,0,825.57678,906.29578,1597.8241,1749.49646,-0.08411,-0.08716,0.99637,-1.085,0.333,-0.35,6191,69434,100663
7.69,769,10611,1,0,0,0,825.57678,906.29578,1597.67151,1749.49646,-0.08191,-0.08643,0.99368,-1.085,0.21,-0.28,6190,69431,100661
7.7,770,10612,1,0,0,0,825.57678,906.29578,1597.8241,1749.57275,-0.08228,-0.08618,0.99295,-0.91,0.245,-0.105,6190,69431,100661
7.71,771,10613,1,0,0,0,825.57678,906.29578,1597.7478,1749.49646,-0.08289,-0.08484,0.99454,-0.77,0.42,-0.245,6192,69432,100660
7.72,772,10614,1,0,0,0,825.57678,906.29578,1597.90039,1749.49646,-0.08289,-0.0846,0.99332,-0.91,0.385,-0.385,6192,69432,100660
7.73,773,10615,1,0,0,0,825.57678,906.37207,1598.58704,1749.95422,-0.08325,-0.08313,0.99466,-1.085,0.35,-0.333,6190,69432,100668
7.74,774,10616,1,0,0,0,825.57678,906.37207,1597.67151,1749.49646,-0.08106,-0.08435,0.99368,-0.875,0.28,-0.35,6190,69432,100668
7.75,775,10617,1,0,0,0,825.57678,906.37207,1597.8241,1749.42017,-0.08155,-0.08484,0.99466,-1.243,0.315,-0.35,6194,69435,100667
7.76,776,10618,1,0,0,0,825.57678,906.37207,1597.8241,1749.57275,-0.08277,-0.08484,0.99466,-1.558,0.333,-0.175,6194,69435,100667
7.77,777,10619,1,0,0,0,825.57678,906.37207,1597.8241,1749.42017,-0.08252,-0.08423,0.99551,-1.278,0.368,-0.088,6195,69436,100665
7.78,778,10620,1,0,0,0,825.65308,906.37207,1597.8241,1749.42017,-0.08289,-0.08411,0.99515,-1.225,0.438,-0.368,6195,69436,100665
7.79,779,10621,1,0,0,0,825.65308,906.37207,1597.7478,1749.57275,-0.08069,-0.08557,0.99222,-1.313,0.368,-0.438,6195,69437,100668
7.8,780,10622,1,0,0,0,825.65308,906.37207,1597.7478,1749.49646,-0.08155,-0.08448,0.99283,-1.208,0.368,-0.158,6195,69437,100668
7.81,781,10623,1,0,0,0,825.65308,906.37207,1597.7478,1749.42017,-0.0824,-0.08521,0.99466,-1.33,0.438,-0.105,6199,69440,100674
7.82,782,10624,1,0,0,0,825.65308,906.37207,1597.8241,1749.87793,-0.0835,-0.0835,0.99564,-1.383,0.42,-0.263,6199,69440,100674
7.83,783,10625,1,0,0,0,825.65308,906.29578,1597.8241,1749.34387,-0.08301,-0.08472,0.9949,-1.208,0.42,-0.21,6197,69441,100676
7.84,784,10626,1,0,0,0,825.65308,906.29578,1597.51892,1749.42017,-0.08264,-0.0857,0.99344,-1.243,0.49,-0.245,6197,69441,100676
7.85,785,10627,1,0,0,0,825.65308,906.29578,1597.8241,1749.57275,-0.08301,-0.08435,0.99515,-1.4,0.455,-0.053,6198,69443,100683
7.86,786,10628,1,0,0,0,825.65308,906.29578,1597.67151,1749.42017,-0.08289,-0.08533,0.99539,-1.435,0.368,-0.018,6198,69443,100683
7.87,787,10629,1,0,0,0,825.65308,906.29578,1597.8241,1749.49646,-0.08216,-0.08557,0.99112,-1.313,0.298,-0.385,6199,69444,100686
7.88,788,10630,1,0,0,0,825.65308,906.29578,1598.05298,1749.34387,-0.0824,-0.08521,0.99283,-1.348,0.28,-0.368,6199,69444,100686
7.89,789,10631,1,0,0,0,825.65308,906.29578,1597.7478,1749.57275,-0.08277,-0.08521,0.99515,-1.348,0.315,-0.263,6205,69444,100685
7.9,790,10632,1,0,0,0,825.65308,906.29578,1597.7478,1749.95422,-0.08313,-0.08545,0.9949,-1.383,0.315,-0.245,6205,69444,100685
7.91,791,10633,1,0,0,0,825.65308,906.29578,1597.8241,1750.2594,-0.08252,-0.08557,0.99466,-1.33,0.368,-0.228,6205,69445,100689
7.92,792,10634,1,0,0,0,825.65308,906.29578,1597.7478,1749.64905,-0.08142,-0.08631,0.99246,-1.435,0.438,-0.158,6205,69445,100689
7.93,793,10635,1,0,0,0,825.65308,906.21948,1597.97668,1749.49646,-0.08277,-0.08582,0.99368,-1.243,0.368,-0.21,6207,69445,100687
7.94,794,10636,1,0,0,0,825.65308,906.21948,1597.51892,1749.80164,-0.08264,-0.08618,0.99344,-1.278,0.49,-0.193,6207,69445,100687
7.95,795,10637,1,0,0,0,825.65308,906.21948,1597.7478,1749.49646,-0.08374,-0.08362,0.99527,-1.208,0.455,-0.158,6208,69446,100692
7.96,796,10638,1,0,0,0,825.65308,906.21948,1597.7478,1749.42017,-0.08301,-0.08435,0.99454,-1.12,0.385,-0.105,6208,69446,100692
7.97,797,10639,1,0,0,0,825.65308,906.21948,1597.67151,1749.49646,-0.08338,-0.08484,0.9938,-1.365,0.333,-0.298,6208,69447,100694
7.98,798,10640,1,0,0,0,825.57678,906.21948,1597.8241,1749.57275,-0.08252,-0.08496,0.9938,-1.26,0.368,-0.298,6208,69447,100694
7.99,799,10641,1,0,0,0,825.57678,906.21948,1597.7478,1749.34387,-0.08191,-0.08399,0.99319,-1.26,0.28,-0.158,6211,69448,100699
8.0,800,10642,1,0,0,0,825.57678,906.21948,1597.8241,1749.72534,-0.08179,-0.08362,0.99356,-1.33,0.28,-0.228,6211,69448,100699
8.01,801,10643,1,0,0,0,825.57678,906.21948,1597.7478,1749.19128,-0.08167,-0.08374,0.99503,-1.435,0.35,-0.245,6213,69448,100701
8.02,802,10644,1,0,0,0,825.57678,906.21948,1597.67151,1749.19128,-0.08203,-0.08325,0.99454,-1.453,0.403,-0.158,6213,69448,100701
8.03,803,10645,1,0,0,0,825.57678,906.29578,1597.90039,1749.49646,-0.08142,-0.08423,0.99539,-1.33,0.333,0.035,6214,69451,100704
8.04,804,10646,1,0,0,0,825.57678,906.29578,1597.51892,1749.26758,-0.08179,-0.0857,0.99527,-1.558,0.42,-0.14,6214,69451,100704
8.05,805,10647,1,0,0,0,825.57678,906.29578,1597.7478,1749.19128,-0.08191,-0.08521,0.99319,-1.575,0.42,-0.298,6215,69449,100706
8.06,806,10648,1,0,0,0,825.57678,906.29578,1597.8241,1749.42017,-0.08167,-0.08618,0.9921,-1.365,0.438,-0.245,6215,69449,100706
8.07,807,10649,1,0,0,0,825.57678,906.29578,1597.8241,1749.34387,-0.08313,-0.08618,0.99344,-1.33,0.49,0.035,6216,69451,100703
8.08,808,10650,1,0,0,0,825.65308,906.29578,1597.7478,1749.49646,-0.08203,-0.0857,0.99295,-1.33,0.368,0.123,6216,69451,100703
8.09,809,10651,1,0,0,0,825.65308,906.29578,1597.8241,1749.49646,-0.08203,-0.08484,0.99368,-1.348,0.368,-0.105,6218,69450,100706
8.1,810,10652,1,0,0,0,825.65308,906.29578,1597.8241,1749.34387,-0.08094,-0.08582,0.99258,-1.278,0.333,-0.158,6218,69450,100706
8.11,811,10653,1,0,0,0,825.65308,906.29578,1597.7478,1749.34387,-0.08228,-0.08509,0.99612,-1.208,0.455,-0.228,6219,69448,100708
8.12,812,10654,1,0,0,0,825.65308,906.29578,1597.67151,1749.57275,-0.0835,-0.08509,0.99478,-1.278,0.368,-0.193,6219,69448,100708
8.13,813,10655,1,0,0,0,825.65308,906.14319,1597.7478,1749.42017,-0.08386,-0.08789,0.99222,-1.173,0.508,-0.368,6222,69451,100711
8.14,814,10656,1,0,0,0,825.65308,906.14319,1597.51892,1749.34387,-0.08423,-0.08777,0.99149,-1.05,0.42,-0.315,6222,69451,100711
8.15,815,10657,1,0,0,0,825.65308,906.14319,1597.59521,1749.64905,-0.08203,-0.08509,0.99026,-0.945,0.455,-0.245,6223,69451,100716
8.16,816,10658,1,0,0,0,825.65308,906.14319,1597.67151,1749.80164,-0.08045,-0.0824,0.99136,-0.893,0.263,-0.193,6223,69451,100716
8.17,817,10659,1,0,0,0,825.65308,906.14319,1597.59521,1749.64905,-0.08069,-0.07898,0.99576,-0.963,0.123,-0.035,6226,69452,100713
8.18,818,10660,1,0,0,0,825.57678,906.14319,1598.28186,1749.87793,-0.07959,-0.08399,0.99344,-1.698,0.42,-0.315,6226,69452,100713
8.19,819,10661,1,0,0,0,825.57678,906.14319,1597.44263,1749.57275,-0.07947,-0.08643,0.99283,-1.978,0.525,-0.14,6230,69452,100716
8.2,820,10662,1,0,0,0,825.57678,906.14319,1597.51892,1749.42017,-0.08362,-0.08887,0.99295,-1.925,0.508,0.0,6230,69452,100716
8.21,821,10663,1,0,0,0,825.57678,906.14319,1597.59521,1749.72534,-0.08557,-0.08765,0.99405,-1.733,0.543,-0.175,6230,69452,100725
8.22,822,10664,1,0,0,0,825.57678,906.14319,1597.51892,1749.34387,-0.08826,-0.08667,0.99734,-1.295,0.473,-0.175,6230,69452,100725
8.23,823,10665,1,0,0,0,825.57678,906.14319,1597.67151,1749.42017,-0.08582,-0.08557,0.99478,-0.893,0.193,-0.21,6232,69453,100728
8.24,824,10666,1,0,0,0,825.57678,906.14319,1597.51892,1749.72534,-0.08362,-0.08667,0.99124,-0.875,0.21,-0.228,6232,69453,100728
8.25,825,10667,1,0,0,0,825.57678,906.14319,1597.67151,1749.26758,-0.08118,-0.08631,0.99222,-0.91,0.175,-0.473,6229,69453,100715
8.26,826,10668,1,0,0,0,825.57678,906.14319,1597.67151,1749.42017,-0.07971,-0.08655,0.99429,-0.893,0.21,-0.333,6229,69453,100715
8.27,827,10669,1,0,0,0,825.57678,906.14319,1597.67151,1749.49646,-0.08106,-0.08606,0.99722,-0.945,0.315,-0.263,6227,69450,100708
8.28,828,10670,1,0,0,0,825.42419,906.14319,1597.59521,1749.34387,-0.08081,-0.08496,0.99576,-0.805,0.28,-0.403,6227,69450,100708
8.29,829,10671,1,0,0,0,825.42419,906.14319,1597.59521,1749.49646,-0.07996,-0.08386,0.99173,-0.823,0.315,-0.56,6225,69445,100699
8.3,830,10672,1,0,0,0,825.42419,906.14319,1597.67151,1749.42017,-0.08264,-0.08362,0.99295,-0.893,0.455,-0.508,6225,69445,100699
8.31,831,10673,1,0,0,0,825.42419,906.14319,1597.67151,1749.26758,-0.08386,-0.08191,0.99283,-0.928,0.543,-0.403,6218,69447,100694
8.32,832,10674,1,0,0,0,825.42419,906.14319,1597.90039,1749.34387,-0.08533,-0.08045,0.99588,-1.12,0.508,-0.21,6218,69447,100694
8.33,833,10675,1,0,0,0,825.42419,906.37207,1597.8241,1749.64905,-0.08399,-0.08545,0.99332,-1.365,0.28,-0.228,6217,69446,100688
8.34,834,10676,1,0,0,0,825.42419,906.37207,1597.44263,1749.34387,-0.08277,-0.08667,0.99429,-1.243,0.228,-0.298,6217,69446,100688
8.35,835,10677,1,0,0,0,825.42419,906.37207,1597.67151,1749.34387,-0.08191,-0.08667,0.99283,-1.12,0.263,-0.14,6215,69441,100689
8.36,836,10678,1,0,0,0,825.42419,906.37207,1597.7478,1749.72534,-0.08106,-0.08472,0.99271,-1.103,0.28,-0.263,6215,69441,100689
8.37,837,10679,1,0,0,0,825.42419,906.37207,1597.59521,1749.42017,-0.08032,-0.0846,0.99295,-1.068,0.35,-0.49,6208,69439,100686
8.38,838,10680,1,0,0,0,825.72937,906.37207,1597.7478,1749.0387,-0.08191,-0.08313,0.99332,-1.033,0.333,-0.403,6208,69439,100686
8.39,839,10681,1,0,0,0,825.72937,906.37207,1597.51892,1749.34387,-0.08216,-0.08289,0.99527,-1.173,0.525,-0.35,6203,69436,100683
8.4,840,10682,1,0,0,0,825.72937,906.37207,1597.59521,1749.26758,-0.08289,-0.08362,0.99588,-1.313,0.403,-0.263,6203,69436,100683
8.41,841,10683,1,0,0,0,825.72937,906.37207,1597.59521,1749.26758,-0.08155,-0.08484,0.99564,-1.26,0.438,-0.088,6201,69433,100675
8.42,842,10684,1,0,0,0,825.72937,906.37207,1597.7478,1749.72534,-0.08301,-0.08533,0.99271,-1.33,0.403,-0.245,6201,69433,100675
8.43,843,10685,1,0,0,0,825.72937,906.06689,1597.8241,1749.11499,-0.08228,-0.08435,0.99283,-1.103,0.368,-0.245,6199,69432,100672
8.44,844,10686,1,0,0,0,825.72937,906.06689,1597.51892,1749.42017,-0.0835,-0.08252,0.99442,-0.963,0.368,-0.088,6199,69432,100672
8.45,845,10687,1,0,0,0,825.72937,906.06689,1597.7478,1749.57275,-0.08264,-0.08228,0.99478,-1.138,0.333,-0.193,6194,69427,100667
8.46,846,10688,1,0,0,0,825.72937,906.06689,1597.59521,1749.42017,-0.08203,-0.08399,0.99478,-1.313,0.315,-0.088,6194,69427,100667
8.47,847,10689,1,0,0,0,825.72937,906.06689,1597.8241,1749.34387,-0.08203,-0.08679,0.99527,-1.383,0.368,0.035,6194,69426,100662
8.48,848,10690,1,0,0,0,825.57678,906.06689,1597.8241,1749.34387,-0.08325,-0.08509,0.99307,-1.19,0.438,-0.158,6194,69426,100662
8.49,849,10691,1,0,0,0,825.57678,906.06689,1597.67151,1749.34387,-0.08325,-0.08509,0.99307,-1.19,0.438,-0.158,6191,69423,100662
8.5,850,10692,1,0,0,0,825.57678,906.06689,1597.7478,1749.26758,-0.08289,-0.08435,0.99271,-1.103,0.385,-0.228,6191,69423,100662
8.51,851,10693,1,0,0,0,825.57678,906.06689,1597.8241,1749.64905,-0.08374,-0.08277,0.99393,-1.085,0.403,-0.315,6186,69422,100661
8.52,852,10694,1,0,0,0,825.57678,906.06689,1597.7478,1749.26758,-0.08435,-0.08179,0.99393,-1.173,0.333,-0.123,6186,69422,100661
8.53,853,10695,1,0,0,0,825.57678,906.06689,1597.67151,1749.34387,-0.08106,-0.08301,0.99197,-1.19,0.263,-0.35,6185,69418,100656
8.54,854,10696,1,0,0,0,825.57678,906.06689,1597.51892,1749.34387,-0.08167,-0.08228,0.99319,-1.243,0.298,-0.123,6185,69418,100656
8.55,855,10697,1,0,0,0,825.57678,906.06689,1597.7478,1749.19128,-0.08081,-0.08264,0.99576,-1.365,0.245,-0.07,6185,69419,100647
8.56,856,10698,1,0,0,0,825.57678,906.06689,1597.8241,1749.11499,-0.07935,-0.08435,0.99454,-1.68,0.28,-0.263,6185,69419,100647
8.57,857,10699,1,0,0,0,825.57678,906.06689,1597.7478,1749.19128,-0.08081,-0.08484,0.99551,-1.47,0.438,-0.105,6183,69415,100647
8.58,858,10700,1,0,0,0,825.57678,906.06689,1597.59521,1749.26758,-0.08057,-0.08496,0.99197,-1.418,0.578,-0.193,6183,69415,100647
8.59,859,10701,1,0,0,0,825.57678,906.06689,1597.67151,1749.11499,-0.08008,-0.08325,0.99368,-1.61,0.49,-0.07,6183,69415,100647
8.6,860,10702,1,0,0,0,825.57678,906.06689,1597.67151,1749.19128,-0.08301,-0.08228,0.99417,-1.575,0.42,-0.053,6180,69412,100644
8.61,861,10703,1,0,0,0,825.57678,906.06689,1597.7478,1749.11499,-0.08411,-0.08313,0.99283,-1.733,0.508,0.035,6180,69412,100644
8.62,862,10704,1,0,0,0,825.57678,906.06689,1597.7478,1749.11499,-0.08325,-0.08374,0.99283,-1.768,0.385,0.158,6181,69409,100641
8.63,863,10705,1,0,0,0,825.57678,906.21948,1597.8241,1749.26758,-0.08338,-0.08618,0.99161,-1.698,0.455,0.035,6176,69407,100636
8.64,864,10706,1,0,0,0,825.57678,906.21948,1597.51892,1749.42017,-0.08228,-0.08692,0.99222,-1.645,0.403,0.0,6176,69407,100636
8.65,865,10707,1,0,0,0,825.57678,906.21948,1597.7478,1749.26758,-0.08252,-0.08606,0.99551,-1.348,0.368,0.123,6176,69407,100636
8.66,866,10708,1,0,0,0,825.57678,906.21948,1597.90039,1749.42017,-0.08057,-0.08704,0.99271,-1.295,0.438,-0.053,6178,69403,100639
8.67,867,10709,1,0,0,0,825.57678,906.21948,1597.51892,1749.26758,-0.08106,-0.08521,0.99344,-1.418,0.368,0.07,6178,69403,100639
8.68,868,10710,1,0,0,0,825.57678,906.21948,1597.7478,1749.26758,-0.08264,-0.08399,0.99319,-1.418,0.368,-0.07,6179,69403,100638
8.69,869,10711,1,0,0,0,825.57678,906.21948,1597.51892,1749.34387,-0.08142,-0.0846,0.99356,-1.47,0.49,-0.193,6179,69403,100638
8.7,870,10712,1,0,0,0,825.57678,906.21948,1597.67151,1749.26758,-0.08252,-0.08411,0.99539,-1.383,0.525,0.07,6176,69402,100640
8.71,871,10713,1,0,0,0,825.57678,906.21948,1597.59521,1749.26758,-0.08325,-0.0835,0.99527,-1.278,0.333,-0.105,6176,69402,100640
8.72,872,10714,1,0,0,0,825.57678,906.21948,1597.59521,1749.34387,-0.08142,-0.08435,0.99222,-1.278,0.368,-0.035,6179,69401,100633
8.73,873,10715,1,0,0,0,825.57678,905.9906,1597.7478,1749.19128,-0.08252,-0.08435,0.99222,-1.225,0.333,-0.035,6178,69399,100637
8.74,874,10716,1,0,0,0,825.57678,905.9906,1597.36633,1749.26758,-0.08167,-0.08496,0.99283,-1.26,0.315,0.035,6178,69399,100637
8.75,875,10717,1,0,0,0,825.57678,905.9906,1597.67151,1749.42017,-0.08386,-0.08533,0.99551,-1.383,0.333,0.035,6178,69399,100637
8.76,876,10718,1,0,0,0,825.57678,905.9906,1597.51892,1749.19128,-0.08399,-0.08582,0.99722,-1.488,0.315,0.053,6177,69403,100640
8.77,877,10719,1,0,0,0,825.57678,905.9906,1597.67151,1749.26758,-0.08325,-0.08509,0.99466,-1.295,0.333,-0.14,6177,69403,100640
8.78,878,10720,1,0,0,0,825.57678,905.9906,1597.90039,1749.26758,-0.08191,-0.08521,0.99429,-1.068,0.403,-0.018,6178,69399,100639
8.79,879,10721,1,0,0,0,825.57678,905.9906,1597.51892,1749.26758,-0.08142,-0.0857,0.99344,-1.12,0.438,0.018,6178,69399,100639
8.8,880,10722,1,0,0,0,825.57678,905.9906,1597.7478,1749.42017,-0.08167,-0.08521,0.99161,-1.208,0.473,-0.07,6177,69400,100635
8.81,881,10723,1,0,0,0,825.57678,905.9906,1597.67151,1749.19128,-0.08374,-0.08496,0.99539,-1.173,0.403,-0.263,6177,69400,100635
8.82,882,10724,1,0,0,0,825.57678,905.9906,1597.7478,1749.11499,-0.08423,-0.08411,0.99661,-1.155,0.455,-0.42,6179,69396,100637
8.83,883,10725,1,0,0,0,825.57678,906.14319,1597.7478,1749.34387,-0.08338,-0.08545,0.99319,-1.085,0.455,-0.438,6178,69398,100638
8.84,884,10726,1,0,0,0,825.57678,906.14319,1597.59521,1749.34387,-0.08142,-0.08594,0.99271,-1.155,0.333,-0.228,6178,69398,100638
8.85,885,10727,1,0,0,0,825.57678,906.14319,1597.7478,1749.42017,-0.08191,-0.08557,0.99307,-1.155,0.42,-0.175,6178,69398,100638
8.86,886,10728,1,0,0,0,825.57678,906.14319,1597.7478,1749.19128,-0.08252,-0.08289,0.99466,-0.963,0.385,-0.49,6183,69401,100642
8.87,887,10729,1,0,0,0,825.57678,906.14319,1597.7478,1749.26758,-0.08301,-0.08252,0.99612,-1.05,0.438,-0.315,6183,69401,100642
8.88,888,10730,1,0,0,0,825.65308,906.14319,1597.7478,1749.19128,-0.08142,-0.08374,0.99405,-1.05,0.333,-0.158,6180,69402,100638
8.89,889,10731,1,0,0,0,825.65308,906.14319,1597.59521,1749.19128,-0.08155,-0.08301,0.99319,-1.138,0.35,-0.175,6180,69402,100638
8.9,890,10732,1,0,0,0,825.65308,906.14319,1597.67151,1749.26758,-0.08362,-0.08325,0.99515,-1.278,0.455,-0.28,6180,69400,100643
8.91,891,10733,1,0,0,0,825.65308,906.14319,1597.67151,1749.26758,-0.0824,-0.08313,0.99454,-1.278,0.315,-0.053,6180,69400,100643
8.92,892,10734,1,0,0,0,825.65308,906.14319,1597.8241,1749.19128,-0.08228,-0.08533,0.99393,-1.26,0.368,-0.123,6182,69402,100643
8.93,893,10735,1,0,0,0,825.65308,906.21948,1597.90039,1749.26758,-0.08203,-0.08484,0.9921,-1.313,0.42,-0.42,6182,69404,100650
8.94,894,10736,1,0,0,0,825.65308,906.21948,1597.44263,1749.19128,-0.0824,-0.08423,0.99295,-1.155,0.42,-0.42,6182,69404,100650
8.95,895,10737,1,0,0,0,825.65308,906.21948,1597.7478,1749.11499,-0.08155,-0.08533,0.99173,-1.155,0.42,-0.298,6182,69404,100650
8.96,896,10738,1,0,0,0,825.65308,906.21948,1597.67151,1749.49646,-0.08301,-0.08325,0.99417,-1.103,0.315,-0.123,6185,69401,100648
8.97,897,10739,1,0,0,0,825.65308,906.21948,1597.7478,1749.19128,-0.08301,-0.08252,0.99478,-1.243,0.368,-0.07,6185,69401,100648
8.98,898,10740,1,0,0,0,825.80566,906.21948,1597.8241,1748.9624,-0.08252,-0.08362,0.99405,-1.313,0.403,-0.105,6184,69399,100644
8.99,899,10741,1,0,0,0,825.80566,906.21948,1597.44263,1749.34387,-0.08142,-0.08411,0.9949,-1.295,0.403,-0.193,6184,69399,100644
9.0,900,10742,1,0,0,0,825.80566,906.21948,1597.59521,1749.26758,-0.08203,-0.08582,0.9949,-1.365,0.42,-0.14,6184,69401,100647
9.01,901,10743,1,0,0,0,825.80566,906.21948,1597.67151,1749.34387,-0.0835,-0.08386,0.99527,-1.33,0.385,-0.088,6184,69401,100647
9.02,902,10744,1,0,0,0,825.80566,906.21948,1597.7478,1749.42017,-0.08289,-0.08374,0.9938,-1.348,0.403,-0.403,6189,69404,100654
9.03,903,10745,1,0,0,0,825.80566,906.06689,1597.8241,1749.11499,-0.08179,-0.08472,0.99319,-1.4,0.385,-0.07,6189,69404,100654
9.04,904,10746,1,0,0,0,825.80566,906.06689,1597.59521,1749.34387,-0.08277,-0.08545,0.99356,-1.435,0.403,0.088,6190,69404,100655
9.05,905,10747,1,0,0,0,825.80566,906.06689,1597.67151,1749.34387,-0.08313,-0.08509,0.99356,-1.505,0.403,-0.228,6190,69404,100655
9.06,906,10748,1,0,0,0,825.80566,906.06689,1597.59521,1749.11499,-0.08521,-0.08325,0.99673,-1.383,0.333,-0.298,6191,69406,100654
9.07,907,10749,1,0,0,0,825.80566,906.06689,1597.67151,1749.19128,-0.0835,-0.08374,0.99417,-1.103,0.368,-0.35,6191,69406,100654
9.08,908,10750,1,0,0,0,825.65308,906.06689,1597.59521,1749.26758,-0.08203,-0.08521,0.99234,-1.243,0.385,-0.175,6190,69406,100659
9.09,909,10751,1,0,0,0,825.65308,906.06689,1597.36633,1749.19128,-0.08325,-0.08325,0.99515,-1.12,0.35,-0.105,6190,69406,100659
9.1,910,10752,1,0,0,0,825.65308,906.06689,1597.67151,1749.0387,-0.08338,-0.08423,0.99417,-1.26,0.28,-0.315,6192,69409,100658
9.11,911,10753,1,0,0,0,825.65308,906.06689,1597.7478,1749.19128,-0.08411,-0.0824,0.99612,-1.243,0.21,-0.368,6192,69409,100658
9.12,912,10754,1,0,0,0,825.65308,906.06689,1597.59521,1749.0387,-0.08167,-0.08448,0.99319,-1.138,0.35,-0.28,6195,69408,100664
9.13,913,10755,1,0,0,0,825.65308,906.29578,1597.59521,1749.34387,-0.07996,-0.08472,0.99234,-1.26,0.385,-0.298,6195,69408,100664
9.14,914,10756,1,0,0,0,825.65308,906.29578,1597.59521,1749.0387,-0.08252,-0.08411,0.99454,-1.365,0.455,-0.578,6195,69408,100667
9.15,915,10757,1,0,0,0,825.65308,906.29578,1597.59521,1749.11499,-0.08142,-0.08338,0.99429,-1.26,0.333,-0.158,6195,69408,100667
9.16,916,10758,1,0,0,0,825.65308,906.29578,1597.67151,1749.19128,-0.0824,-0.08228,0.99527,-1.138,0.298,-0.14,6197,69406,100664
9.17,917,10759,1,0,0,0,825.65308,906.29578,1597.67151,1749.34387,-0.08228,-0.08338,0.99393,-1.418,0.455,-0.298,6197,69406,100664
9.18,918,10760,1,0,0,0,825.72937,906.29578,1597.59521,1749.34387,-0.08191,-0.08277,0.99405,-1.453,0.473,-0.21,6199,69409,100664
9.19,919,10761,1,0,0,0,825.72937,906.29578,1597.51892,1749.26758,-0.08362,-0.08277,0.99576,-1.435,0.385,-0.228,6199,69409,100664
9.2,920,10762,1,0,0,0,825.72937,906.29578,1597.90039,1749.34387,-0.08228,-0.08362,0.99429,-1.453,0.403,-0.35,6199,69406,100673
9.21,921,10763,1,0,0,0,825.72937,906.29578,1597.59521,1749.11499,-0.08252,-0.08484,0.99417,-1.575,0.438,-0.105,6199,69406,100673
9.22,922,10764,1,0,0,0,825.72937,906.29578,1597.7478,1749.11499,-0.08179,-0.08521,0.99283,-1.593,0.403,-0.175,6202,69405,100669
9.23,923,10765,1,0,0,0,825.72937,906.44836,1597.97668,1749.72534,-0.08203,-0.08399,0.99442,-1.453,0.42,-0.193,6202,69405,100669
9.24,924,10766,1,0,0,0,825.72937,906.44836,1597.44263,1749.11499,-0.08179,-0.0835,0.99442,-1.488,0.35,-0.263,6203,69406,100670
9.25,925,10767,1,0,0,0,825.72937,906.44836,1597.59521,1749.11499,-0.08155,-0.08521,0.99356,-1.558,0.298,-0.018,6203,69406,100670
9.26,926,10768,1,0,0,0,825.72937,906.44836,1597.59521,1749.42017,-0.08191,-0.0857,0.99466,-1.4,0.403,-0.053,6202,69405,100667
9.27,927,10769,1,0,0,0,825.72937,906.44836,1597.44263,1749.0387,-0.08325,-0.08472,0.9938,-1.383,0.438,-0.035,6202,69405,100667
9.28,928,10770,1,0,0,0,825.3479,906.44836,1597.67151,1749.11499,-0.08362,-0.08618,0.99393,-1.365,0.438,-0.105,6207,69403,100668
9.29,929,10771,1,0,0,0,825.3479,906.44836,1597.36633,1749.42017,-0.08533,-0.08606,0.99344,-1.295,0.473,-0.123,6207,69403,100668
9.3,930,10772,1,0,0,0,825.3479,906.44836,1597.44263,1749.19128,-0.08386,-0.08448,0.99185,-1.173,0.385,-0.228,6207,69407,100675
9.31,931,10773,1,0,0,0,825.3479,906.44836,1597.44263,1749.26758,-0.08191,-0.08118,0.99222,-1.138,0.298,-0.158,6207,69407,100675
9.32,932,10774,1,0,0,0,825.3479,906.44836,1597.51892,1749.11499,-0.08045,-0.08045,0.99393,-1.225,0.228,0.07,6209,69404,100674
9.33,933,10775,1,0,0,0,825.3479,906.06689,1597.67151,1749.19128,-0.07984,-0.08228,0.99649,-1.785,0.543,-0.088,6209,69404,100674
9.34,934,10776,1,0,0,0,825.3479,906.06689,1597.36633,1749.11499,-0.08081,-0.08643,0.99393,-2.03,0.63,0.053,6211,69402,100677
9.35,935,10777,1,0,0,0,825.3479,906.06689,1597.67151,1749.49646,-0.08423,-0.08814,0.99466,-1.768,0.595,0.035,6211,69402,100677
9.36,936,10778,1,0,0,0,825.3479,906.06689,1597.67151,1749.19128,-0.08374,-0.08741,0.99344,-1.54,0.56,0.018,6211,69403,100680
9.37,937,10779,1,0,0,0,825.3479,906.06689,1597.67151,1749.19128,-0.08509,-0.08716,0.99612,-1.348,0.49,0.0,6211,69403,100680
9.38,938,10780,1,0,0,0,825.50049,906.06689,1597.7478,1749.19128,-0.08521,-0.08521,0.99136,-0.858,0.263,-0.14,6212,69401,100680
9.39,939,10781,1,0,0,0,825.50049,906.06689,1597.29004,1749.11499,-0.08142,-0.08423,0.99026,-0.893,0.175,-0.07,6212,69401,100680
9.4,940,10782,1,0,0,0,825.50049,906.06689,1597.59521,1749.11499,-0.08155,-0.08264,0.99442,-1.033,0.175,-0.105,6216,69403,100672
9.41,941,10783,1,0,0,0,825.50049,906.06689,1597.67151,1749.19128,-0.08069,-0.08411,0.99417,-1.295,0.158,-0.333,6216,69403,100672
